accel_x,accel_y,accel_z,gyro_x,gyro_y,gyro_z
0.15269792771827617,-0.4727820455868322,0.8412355228719435,-1.1177423425453594,-0.9961728903052526,-0.9033397474141861
0.08926598209780512,-0.5108371443354899,0.8222094326426697,1.090749935792863,1.0986502381336731,-0.9033397474141861
0.11040996397129547,-0.4854670785030514,0.8317224777573066,0.9582403990925695,0.7862643330155877,-0.9033397474141861
0.30070580083270865,-0.4981521114192706,0.784157252184122,1.002410244659334,0.9883963892684665,-0.9033397474141861
0.19498589146525688,-0.4981521114192706,0.8126963875280327,-1.1265763116587124,-0.9318581451338821,-0.9121460016096642
0.13155394584478583,-0.4854670785030514,-1.517999665558008,0.914070553525805,-1.0145485317827871,-0.9121460016096642
0.15269792771827617,-0.4854670785030514,-1.5370257557872817,1.002410244659334,0.8873303611420271,-0.9033397474141861
0.2372738552122376,-0.4854670785030514,0.7746442070694851,-1.1089083734320064,0.8230156159706566,-0.8945334932187081
0.321849782706199,-0.4981521114192706,0.7936702972987589,1.0554140593394512,-1.2350562295132004,1.3334488182372406
0.21612987333874725,-0.4981521114192706,0.7746442070694851,0.9494064299792166,-0.9594216073501838,1.3158363098462844
0.13155394584478583,-0.4981521114192706,-1.5370257557872817,-1.0912404352053007,-1.0788632769541575,-0.8945334932187081
0.15269792771827617,-0.5108371443354899,0.8602616131012173,-1.0912404352053007,0.9057060026195616,-0.9121460016096642
0.19498589146525688,-0.5108371443354899,0.7936702972987589,1.0289121519993927,0.8322034367094239,1.3246425640417625
0.3429937645796894,-0.4854670785030514,0.7270789814963007,1.0289121519993927,-1.1891171258193642,1.3334488182372406
0.19498589146525688,-0.4981521114192706,0.8697746582158542,-1.1442442498854182,-0.9869850695664855,-0.9121460016096642
0.17384190959176654,-0.4981521114192706,-1.517999665558008,-1.0912404352053007,-1.1339902013867609,-0.8945334932187081
0.19498589146525688,-0.5108371443354899,0.8507485679865804,1.0465800902260984,1.1078380588724404,-0.8769209848277519
0.25841783708572796,-0.5108371443354899,0.8412355228719435,-1.161912188112124,1.089462417394906,-0.8681147306322738
0.21612987333874725,-0.4981521114192706,0.7936702972987589,-1.073572496978595,1.0802745966561387,-0.9033397474141861
0.25841783708572796,-0.4981521114192706,0.7556181168402113,-1.1177423425453594,1.0986502381336731,1.3070300556508063
0.15269792771827617,-0.4727820455868322,0.8126963875280327,0.993576275545981,-1.216680588035666,1.3070300556508063
0.21612987333874725,-0.4981521114192706,0.8222094326426697,-1.1442442498854182,1.0986502381336731,-0.8945334932187081
0.15269792771827617,-0.4981521114192706,0.8317224777573066,-1.0205686822984776,0.8965181818807944,-0.8505022222413178
0.321849782706199,-0.5108371443354899,0.7556181168402113,1.0642480284528042,1.0435233137010698,-0.8681147306322738
0.27956181895921833,-0.4854670785030514,0.7651311619548482,1.0642480284528042,-1.1064267391704592,1.3070300556508063
0.17384190959176654,-0.4727820455868322,0.8602616131012173,-1.073572496978595,-1.060487635476623,1.3158363098462844
0.21612987333874725,-0.4727820455868322,-1.5465388009019185,-1.082406466091948,-1.1983049465581315,-0.9121460016096642
0.2372738552122376,-0.4727820455868322,0.8126963875280327,1.0642480284528042,0.9516451063133977,-0.8593084764367959
0.21612987333874725,-0.4854670785030514,0.7936702972987589,0.993576275545981,1.0710867759173714,-0.8769209848277519
0.17384190959176654,-0.5108371443354899,0.8412355228719435,1.011244213772687,-1.1983049465581315,1.3158363098462844
0.2372738552122376,-0.5108371443354899,0.8412355228719435,-1.0647385278652421,-1.1615536636030626,1.3246425640417625
0.30070580083270865,-0.4854670785030514,0.8222094326426697,1.0465800902260984,-1.179929305080597,1.3246425640417625
0.17384190959176654,-0.4727820455868322,0.8602616131012173,0.9670743682059224,0.9332694648358633,-0.8945334932187081
0.321849782706199,-0.4981521114192706,0.7936702972987589,-1.161912188112124,0.924081644097096,-0.8769209848277519
0.27956181895921833,-0.5108371443354899,0.8412355228719435,-1.0647385278652421,-1.1891171258193642,-0.9033397474141861
0.21612987333874725,-0.4981521114192706,0.7936702972987589,1.0289121519993927,-1.0696754562153903,1.3246425640417625
0.19498589146525688,-0.4854670785030514,0.879287703330491,0.9847423064326282,1.089462417394906,1.3158363098462844
0.19498589146525688,-0.4727820455868322,0.8126963875280327,-1.0647385278652421,0.9148938233583288,-0.88572723902323
0.25841783708572796,-0.4854670785030514,0.7936702972987589,-1.1089083734320064,0.9148938233583288,-0.8945334932187081
0.25841783708572796,-0.4981521114192706,0.784157252184122,1.002410244659334,-1.0421119939990888,1.3246425640417625
0.2372738552122376,-0.4981521114192706,0.8507485679865804,1.073081997566157,-1.060487635476623,-0.9033397474141861
0.06812200022431476,-0.32056165059220154,-1.318225718150633,0.9759083373192753,0.4738784278975023,-0.8593084764367959
0.08926598209780512,-0.6250024405814628,0.8507485679865804,0.5783797272183953,-0.23358376898757352,1.0692611923728987
0.4487136739471412,-0.4220419139219553,0.5463311243181995,-1.1177423425453594,0.9700207477909321,1.3070300556508063
0.36413774645317976,-0.2063963543462286,-1.5465388009019185,-0.8527232691447727,0.23499508868955463,-0.6391521215498444
-0.05874189101662737,-0.21908138726244783,-1.3087126730359961,-0.8085534235780083,-0.059015174950996355,-0.5070583086176735
0.4698576558206315,-0.3966718480895169,-1.2801735376920853,-1.0470705896385364,0.418751503464899,-0.6479583757453224
0.4698576558206315,-0.43472694683817453,-0.9472169586797939,0.9670743682059224,-1.1339902013867609,-0.7712459344820153
0.2372738552122376,-0.5108371443354899,-1.4038431241823652,1.0554140593394512,-0.6010965985382623,-0.8593084764367959
0.6601534926820447,0.021934238145717305,-1.4704344399848235,-0.039998110716306955,-1.0421119939990888,1.3070300556508063
0.617865528935064,-0.23176642017866705,-1.4418953046409126,0.8875686461857464,0.7678886915380533,1.0252299213955085
0.5544335833145929,-0.30787661767598234,-1.2611474474628117,-0.8703912073714786,0.6851983048891483,-0.5951208505724541
0.2372738552122376,-0.041490926435378786,-1.2611474474628117,0.9759083373192753,-0.059015174950996355,-0.7888584428729714
0.6390095108085544,-0.35861674934085924,-0.3383820713430322,0.6578854492385713,-0.059015174950996355,1.2806112930643723
1.104177112025342,-0.4727820455868322,-0.747443011272419,0.7373911712587473,-1.0512998147378558,1.2894175472598504
0.9984572026578904,-0.5996323747490243,-1.2801735376920853,-1.0912404352053007,-0.4540914667179867,1.2718050388688942
0.5967215470615737,-0.460097012670613,-1.32773876326527,-0.7113797633311265,-0.5184062118893573,-0.9121460016096642
0.11040996397129547,-0.23176642017866705,-1.1755300414310794,-0.7202137324444794,-0.6378478814933312,1.2982238014553282
-0.01645392726964666,-0.2063963543462286,-1.0994256805139844,0.993576275545981,1.0802745966561387,1.3158363098462844
0.19498589146525688,-0.38398681517329764,-1.0803995902847106,0.4105343140646904,0.36362457903229567,1.262998784673416
0.5332896014411026,-0.4854670785030514,-1.0518604549407997,0.6490514801252184,0.4279393242036662,1.2189675136960259
1.0830331301518519,2.57162585430578,-1.4514083497555497,-1.0294026514118306,-0.8399799377462099,-0.8769209848277519
0.7658734020494965,-0.4220419139219553,-1.3657909437238176,-1.0294026514118306,-0.6378478814933312,-0.88572723902323
0.21612987333874725,-0.35861674934085924,-1.2706604925774485,-0.9852328058450661,-0.6470357022320984,-0.8681147306322738
-0.10102985476360808,-0.29519158475976315,-1.1660169963164426,-0.9057270838248901,-0.8675433999625116,-0.8593084764367959
-0.07988587289011773,-0.34593171642464,-1.213582221889627,1.011244213772687,0.9608329270521648,1.2982238014553282
0.17384190959176654,-0.34593171642464,-1.3087126730359961,0.6402175110118655,0.06042649465297748,1.3158363098462844
0.025834036477334052,-0.37130178225707844,-1.3943300790677282,0.8522327697323349,0.4738784278975023,-0.8505022222413178
0.8504493295434579,-0.44741197975439373,-1.5370257557872817,-0.9322289911649487,-0.3989645422853834,1.262998784673416
0.17384190959176654,-0.2698215189273247,-1.5370257557872817,-0.7025457942177736,-0.08657863716729801,1.2101612595005478
-0.12217383663709844,-0.30787661767598234,-1.413356169297002,0.8345648315056291,-0.7297260888810033,1.086873700763855
0.04697801835082441,-0.23176642017866705,-1.3467648534945438,0.763893078598806,0.9516451063133977,1.1837424969141135
0.2372738552122376,-0.3966718480895169,-1.2516344023481747,0.8080629241655704,0.3176854753384596,1.1749362427186356
0.40642571020016044,-0.35861674934085924,-1.4038431241823652,1.08191596667951,0.20743162647325297,-0.8416959680458397
1.040745166404871,-0.6123174076652436,0.7936702972987589,-1.0205686822984776,1.0251476722235353,-0.7800521886774934
0.30070580083270865,-0.4220419139219553,-1.3657909437238176,-1.1442442498854182,-0.06820299568976358,1.113292463350289
-0.7987812565887898,-0.016120860602940348,-1.127964815857895,-1.1177423425453594,0.9792085685296993,-0.4013832582719369
1.104177112025342,-0.6123174076652436,-1.4323822595262758,-1.0294026514118306,-0.8675433999625116,-0.8240834596548836
-0.05874189101662737,-0.5362072101679283,0.8697746582158542,-1.0029007440717719,-0.6010965985382623,0.8314923290949912
-0.12217383663709844,-0.4220419139219553,-1.527512710672645,-1.1000744043186537,1.0986502381336731,0.8755236000723815
0.2372738552122376,-0.3966718480895169,0.8602616131012173,1.011244213772687,0.6851983048891483,1.2718050388688942
0.3429937645796894,-0.460097012670613,0.784157252184122,1.073081997566157,0.9608329270521648,-0.56870208798602
0.25841783708572796,-0.5615772760003667,0.7556181168402113,-1.0470705896385364,-0.9318581451338821,-0.5070583086176735
0.19498589146525688,-0.5742623089165859,-1.5370257557872817,1.0642480284528042,-0.9594216073501838,-0.8593084764367959
0.17384190959176654,-0.523522177251709,0.8697746582158542,0.9759083373192753,1.006772030746001,1.0780674465683768
0.15269792771827617,-0.44741197975439373,0.8412355228719435,-1.0912404352053007,0.8046399744931222,1.0692611923728987
0.321849782706199,-0.460097012670613,0.7651311619548482,-1.1265763116587124,-1.2350562295132004,1.236580022086982
0.17384190959176654,-0.4727820455868322,0.784157252184122,1.08191596667951,-0.9777972488277182,-0.7448271718955811
0.11040996397129547,-0.5108371443354899,0.8697746582158542,0.9670743682059224,-1.1615536636030626,-0.6655708841362786
0.11040996397129547,-0.5362072101679283,-1.5370257557872817,1.08191596667951,0.7495130500605188,-0.7888584428729714
0.321849782706199,-0.5615772760003667,0.8602616131012173,-1.0912404352053007,0.7770765122768205,1.2101612595005478
0.40642571020016044,-0.4854670785030514,0.7746442070694851,1.002410244659334,-0.968609428088951,1.0956799549593328
0.11040996397129547,-0.44741197975439373,0.879287703330491,-1.1354102807720652,-0.8399799377462099,1.2718050388688942
0.13155394584478583,-0.4727820455868322,0.879287703330491,-1.1000744043186537,1.0710867759173714,-0.7712459344820153
0.11040996397129547,-0.5108371443354899,0.7936702972987589,1.0377461211127454,0.8597668989257254,-0.736020917700103
0.27956181895921833,-0.523522177251709,0.7651311619548482,0.9847423064326282,1.0435233137010698,-0.8769209848277519
0.27956181895921833,-0.5108371443354899,0.7936702972987589,-1.1265763116587124,-1.0696754562153903,1.262998784673416
0.13155394584478583,-0.5108371443354899,0.8697746582158542,-1.0559045587518892,-1.097238918431692,1.2101612595005478
0.21612987333874725,-0.4727820455868322,0.8697746582158542,1.011244213772687,1.052711134439837,1.2982238014553282
0.2372738552122376,-0.4854670785030514,0.879287703330491,0.8787346770723935,0.9057060026195616,-0.8593084764367959
0.321849782706199,-0.5108371443354899,0.8222094326426697,-1.1000744043186537,1.0710867759173714,-0.7976646970684494
0.30070580083270865,-0.523522177251709,0.8697746582158542,-1.1177423425453594,-1.1156145599092264,-0.8945334932187081
0.2372738552122376,-0.5108371443354899,0.8602616131012173,1.0377461211127454,-1.1983049465581315,1.2718050388688942
0.17384190959176654,-0.4854670785030514,0.8126963875280327,1.08191596667951,0.9424572855746305,1.2894175472598504
0.25841783708572796,-0.4981521114192706,0.8126963875280327,-1.0382366205251834,1.052711134439837,1.3334488182372406
0.21612987333874725,-0.5108371443354899,0.8031833424133958,1.073081997566157,-1.1248023806479936,-0.88572723902323
0.21612987333874725,-0.4981521114192706,0.8412355228719435,1.0377461211127454,-1.143178022125528,-0.8505022222413178
0.17384190959176654,-0.4981521114192706,0.8507485679865804,1.0465800902260984,1.006772030746001,-0.88572723902323
0.19498589146525688,-0.523522177251709,0.8126963875280327,-1.073572496978595,0.9700207477909321,1.3158363098462844
0.21612987333874725,-0.4854670785030514,0.8222094326426697,0.9229045226391579,1.0435233137010698,1.262998784673416
0.21612987333874725,-0.4854670785030514,0.8317224777573066,0.9847423064326282,-1.1983049465581315,1.3246425640417625
0.15269792771827617,-0.4981521114192706,0.8602616131012173,-1.0912404352053007,-1.216680588035666,-0.8505022222413178
0.15269792771827617,-0.4981521114192706,0.8697746582158542,1.0377461211127454,0.9700207477909321,-0.8505022222413178
0.25841783708572796,-0.4981521114192706,0.8126963875280327,0.9494064299792166,1.015959851484768,-0.9033397474141861
0.25841783708572796,-0.523522177251709,0.8126963875280327,-1.1354102807720652,-1.1891171258193642,1.2894175472598504
0.19498589146525688,-0.4981521114192706,0.8507485679865804,-1.0029007440717719,-1.1339902013867609,1.2806112930643723
0.17384190959176654,-0.4981521114192706,-1.5465388009019185,1.0377461211127454,-1.2258684087744331,1.3334488182372406
0.25841783708572796,-0.5108371443354899,0.8602616131012173,0.9670743682059224,0.9608329270521648,-0.8593084764367959
0.30070580083270865,-0.5108371443354899,0.8031833424133958,1.0554140593394512,1.052711134439837,-0.8769209848277519
0.19498589146525688,-0.4981521114192706,0.784157252184122,-1.1177423425453594,-1.1339902013867609,1.3246425640417625
0.21612987333874725,-0.5108371443354899,0.8507485679865804,1.0289121519993927,-1.216680588035666,1.2806112930643723
0.15269792771827617,-0.4727820455868322,0.8317224777573066,1.002410244659334,1.0343354929623025,1.3070300556508063
0.25841783708572796,-0.4854670785030514,0.8602616131012173,-1.0559045587518892,0.8873303611420271,-0.8505022222413178
0.321849782706199,-0.4981521114192706,0.7746442070694851,-1.1177423425453594,-1.2258684087744331,-0.8769209848277519
0.2372738552122376,-0.5108371443354899,0.7936702972987589,0.9759083373192753,-1.0145485317827871,1.3334488182372406
0.19498589146525688,-0.4981521114192706,-1.5084866204433711,1.073081997566157,1.0343354929623025,-0.9121460016096642
0.13155394584478583,-0.523522177251709,0.8697746582158542,-1.0912404352053007,0.7770765122768205,-0.9121460016096642
0.321849782706199,-0.4854670785030514,0.7080528912670269,-1.1265763116587124,1.006772030746001,1.2982238014553282
0.25841783708572796,-0.4981521114192706,0.8031833424133958,0.993576275545981,-0.968609428088951,1.3070300556508063
0.19498589146525688,-0.4854670785030514,-1.5465388009019185,-1.1265763116587124,-1.0329241732603216,-0.8593084764367959
0.19498589146525688,-0.523522177251709,0.8697746582158542,-1.0647385278652421,0.9516451063133977,-0.8593084764367959
0.21612987333874725,-0.5108371443354899,0.7936702972987589,1.0377461211127454,0.9424572855746305,-0.9121460016096642
0.25841783708572796,-0.5108371443354899,0.784157252184122,1.0554140593394512,-1.1064267391704592,1.3246425640417625
0.21612987333874725,-0.4854670785030514,0.8317224777573066,-1.0912404352053007,-1.0512998147378558,1.3334488182372406
0.15269792771827617,-0.4854670785030514,0.8507485679865804,1.073081997566157,1.0986502381336731,-0.88572723902323
0.2372738552122376,-0.5108371443354899,0.8222094326426697,0.9494064299792166,0.8597668989257254,-0.8945334932187081
0.30070580083270865,-0.5108371443354899,0.784157252184122,1.0554140593394512,1.0435233137010698,-0.9033397474141861
0.21612987333874725,-0.5108371443354899,0.8222094326426697,-0.9852328058450661,-1.060487635476623,-0.8945334932187081
0.21612987333874725,-0.4981521114192706,0.8602616131012173,1.0377461211127454,-1.143178022125528,1.3246425640417625
0.15269792771827617,-0.4854670785030514,0.8031833424133958,1.0465800902260984,0.9516451063133977,-0.8945334932187081
0.27956181895921833,-0.4854670785030514,0.7651311619548482,-1.153078218998771,-1.1891171258193642,-0.88572723902323
0.2372738552122376,-0.5108371443354899,0.8031833424133958,-1.0205686822984776,-1.0512998147378558,-0.88572723902323
0.27956181895921833,-0.5108371443354899,0.879287703330491,1.002410244659334,-1.1156145599092264,1.3246425640417625
0.19498589146525688,-0.5108371443354899,-1.517999665558008,0.9847423064326282,0.9148938233583288,-0.8769209848277519
0.19498589146525688,-0.4981521114192706,0.7651311619548482,-1.1354102807720652,0.9148938233583288,-0.8681147306322738
0.321849782706199,-0.5108371443354899,0.784157252184122,-1.153078218998771,-1.179929305080597,1.3334488182372406
0.27956181895921833,-0.5108371443354899,0.8317224777573066,1.002410244659334,-1.00536071104402,1.3158363098462844
0.2372738552122376,-0.5108371443354899,0.8602616131012173,1.073081997566157,-1.1339902013867609,-0.9121460016096642
0.2372738552122376,-0.5108371443354899,0.8317224777573066,-1.0912404352053007,1.0618989551786042,-0.88572723902323
0.19498589146525688,-0.4981521114192706,0.8222094326426697,-1.1354102807720652,0.9608329270521648,-0.9033397474141861
0.19498589146525688,-0.4727820455868322,0.7651311619548482,1.002410244659334,-1.1523658428642953,1.3334488182372406
0.2372738552122376,-0.4981521114192706,0.8222094326426697,-1.1089083734320064,-1.1891171258193642,-0.9121460016096642
0.2372738552122376,-0.523522177251709,0.8317224777573066,-1.0647385278652421,1.1078380588724404,1.3334488182372406
0.11040996397129547,-0.4981521114192706,-1.5084866204433711,0.9229045226391579,0.841391257448191,1.3246425640417625
0.2372738552122376,-0.4981521114192706,0.7746442070694851,1.08191596667951,0.9608329270521648,-0.9121460016096642
0.25841783708572796,-0.4981521114192706,0.8031833424133958,-1.0559045587518892,-1.060487635476623,-0.9121460016096642
0.17384190959176654,-0.523522177251709,-1.5465388009019185,-1.1265763116587124,-0.968609428088951,-0.9033397474141861
0.11040996397129547,-0.4981521114192706,-1.4799474850994603,1.08191596667951,0.8965181818807944,-0.8769209848277519
0.2372738552122376,-0.4854670785030514,0.8317224777573066,1.0377461211127454,0.7495130500605188,-0.9033397474141861
0.30070580083270865,-0.523522177251709,0.7461050717255744,-1.0912404352053007,-1.216680588035666,-0.9121460016096642
0.13155394584478583,-0.5108371443354899,0.8317224777573066,-1.1265763116587124,-0.9594216073501838,1.3070300556508063
0.17384190959176654,-0.4727820455868322,0.8507485679865804,0.9847423064326282,-1.1248023806479936,-0.9033397474141861
0.19498589146525688,-0.4854670785030514,0.8507485679865804,1.0642480284528042,1.015959851484768,-0.8505022222413178
0.321849782706199,-0.523522177251709,0.7936702972987589,-1.0029007440717719,1.0251476722235353,-0.8505022222413178
0.25841783708572796,-0.523522177251709,0.8126963875280327,1.0554140593394512,-1.143178022125528,1.3158363098462844
0.21612987333874725,-0.4854670785030514,0.8412355228719435,1.0377461211127454,-1.1523658428642953,1.2982238014553282
0.21612987333874725,-0.4854670785030514,0.8412355228719435,-1.073572496978595,1.0618989551786042,-0.9121460016096642
0.19498589146525688,-0.5108371443354899,0.8317224777573066,-1.073572496978595,0.9792085685296993,-0.8769209848277519
0.2372738552122376,-0.523522177251709,0.8222094326426697,1.011244213772687,1.052711134439837,-0.8769209848277519
0.19498589146525688,-0.4981521114192706,0.8126963875280327,-1.161912188112124,1.0802745966561387,-0.8593084764367959
0.25841783708572796,-0.4981521114192706,0.8031833424133958,-1.082406466091948,-1.1339902013867609,1.3334488182372406
0.17384190959176654,-0.4981521114192706,0.8412355228719435,-1.0559045587518892,-1.216680588035666,1.3070300556508063
0.19498589146525688,-0.4854670785030514,0.784157252184122,0.9494064299792166,1.0343354929623025,1.3246425640417625
0.25841783708572796,-0.4854670785030514,0.8317224777573066,1.073081997566157,1.006772030746001,-0.8769209848277519
0.27956181895921833,-0.5108371443354899,0.8031833424133958,-1.1354102807720652,-1.1156145599092264,-0.8769209848277519
0.2372738552122376,-0.523522177251709,0.8507485679865804,1.090749935792863,-1.0880510976929247,-0.9121460016096642
0.13155394584478583,-0.4854670785030514,-1.527512710672645,1.0465800902260984,0.8965181818807944,1.3158363098462844
0.2372738552122376,-0.4981521114192706,0.7651311619548482,-1.082406466091948,0.8873303611420271,-0.9121460016096642
0.30070580083270865,-0.4854670785030514,0.8031833424133958,-1.1089083734320064,-1.1707414843418298,1.3246425640417625
0.30070580083270865,-0.4981521114192706,-1.527512710672645,0.9759083373192753,-0.9318581451338821,1.3334488182372406
0.2372738552122376,-0.4981521114192706,0.879287703330491,1.090749935792863,-1.179929305080597,-0.8681147306322738
0.19498589146525688,-0.5108371443354899,0.7936702972987589,-1.0559045587518892,0.9883963892684665,-0.8593084764367959
0.17384190959176654,-0.5108371443354899,0.7746442070694851,1.073081997566157,1.0802745966561387,1.3246425640417625
0.25841783708572796,-0.5108371443354899,0.8126963875280327,0.9494064299792166,-1.1248023806479936,1.2806112930643723
0.21612987333874725,-0.4727820455868322,0.8412355228719435,-1.1089083734320064,-1.2350562295132004,-0.9121460016096642
0.25841783708572796,-0.4981521114192706,0.8031833424133958,-0.994066774958419,-1.216680588035666,-0.8681147306322738
0.25841783708572796,-0.5108371443354899,0.8126963875280327,1.0465800902260984,-1.097238918431692,-0.8769209848277519
0.21612987333874725,-0.5108371443354899,0.8507485679865804,1.0377461211127454,-1.216680588035666,-0.8945334932187081
0.25841783708572796,-0.4981521114192706,-1.498973575328734,-1.0117347131851246,0.924081644097096,-0.9033397474141861
0.27956181895921833,-0.523522177251709,0.8222094326426697,0.9670743682059224,0.9332694648358633,1.2982238014553282
0.30070580083270865,-0.4981521114192706,0.7175659363816638,1.0642480284528042,-1.1156145599092264,1.3334488182372406
0.13155394584478583,-0.4727820455868322,0.8031833424133958,-1.153078218998771,-0.9777972488277182,-0.88572723902323
0.13155394584478583,-0.5108371443354899,0.8507485679865804,-1.073572496978595,-1.216680588035666,-0.88572723902323
0.17384190959176654,-0.5108371443354899,0.879287703330491,1.0377461211127454,0.8505790781869582,1.3334488182372406
0.27956181895921833,-0.4981521114192706,0.784157252184122,1.0200781828860397,0.9975842100072337,1.3070300556508063
0.25841783708572796,-0.4981521114192706,0.7746442070694851,-1.0647385278652421,-1.1615536636030626,-0.9121460016096642
0.21612987333874725,-0.5108371443354899,0.8412355228719435,-1.161912188112124,-1.0788632769541575,1.3334488182372406
0.19498589146525688,-0.523522177251709,0.8317224777573066,0.9847423064326282,-1.2258684087744331,-0.9121460016096642
0.17384190959176654,-0.4854670785030514,0.8222094326426697,1.073081997566157,0.924081644097096,-0.88572723902323
0.21612987333874725,-0.5108371443354899,0.784157252184122,-1.0912404352053007,0.9975842100072337,-0.8945334932187081
0.17384190959176654,-0.4981521114192706,0.8317224777573066,1.0289121519993927,-1.2350562295132004,1.3158363098462844
0.17384190959176654,-0.4727820455868322,0.7746442070694851,1.0642480284528042,-1.1064267391704592,1.3246425640417625
0.19498589146525688,-0.4981521114192706,0.8317224777573066,-1.0912404352053007,-1.2258684087744331,-0.88572723902323
0.19498589146525688,-0.523522177251709,0.8126963875280327,-1.153078218998771,1.0251476722235353,-0.9121460016096642
0.25841783708572796,-0.5108371443354899,0.8031833424133958,0.9670743682059224,1.0435233137010698,1.3246425640417625
0.25841783708572796,-0.5108371443354899,0.8031833424133958,-1.1442442498854182,1.089462417394906,-0.9121460016096642
0.2372738552122376,-0.5108371443354899,0.8602616131012173,-1.082406466091948,-1.1891171258193642,1.3334488182372406
0.21612987333874725,-0.4981521114192706,-1.5465388009019185,1.002410244659334,1.0343354929623025,-0.9033397474141861
0.2372738552122376,-0.4981521114192706,0.8126963875280327,0.914070553525805,1.0251476722235353,-0.8945334932187081
0.25841783708572796,-0.5108371443354899,0.8031833424133958,-1.1177423425453594,-1.1891171258193642,-0.8945334932187081
0.27956181895921833,-0.5362072101679283,0.8317224777573066,-1.1000744043186537,-1.097238918431692,1.3246425640417625
0.19498589146525688,-0.4981521114192706,0.8602616131012173,0.9759083373192753,-1.1891171258193642,1.2982238014553282
0.15269792771827617,-0.4854670785030514,0.8507485679865804,0.8964026152990993,0.9057060026195616,1.3246425640417625
0.27956181895921833,-0.5108371443354899,0.7746442070694851,-1.082406466091948,0.9883963892684665,-0.8945334932187081
0.2372738552122376,-0.5108371443354899,0.8317224777573066,-1.161912188112124,-1.179929305080597,-0.9033397474141861
0.2372738552122376,-0.4854670785030514,0.8317224777573066,1.090749935792863,-0.9869850695664855,-0.88572723902323
0.17384190959176654,-0.4854670785030514,0.8602616131012173,-1.153078218998771,1.0986502381336731,-0.8945334932187081
0.21612987333874725,-0.5108371443354899,0.8222094326426697,-1.1000744043186537,0.9975842100072337,1.3158363098462844
0.21612987333874725,-0.4981521114192706,0.784157252184122,1.0465800902260984,-1.2350562295132004,1.2982238014553282
0.19498589146525688,-0.4854670785030514,0.8507485679865804,1.002410244659334,-1.143178022125528,1.3158363098462844
0.21612987333874725,-0.4854670785030514,-1.5370257557872817,-1.1089083734320064,1.0986502381336731,-0.8681147306322738
0.25841783708572796,-0.523522177251709,-1.498973575328734,1.090749935792863,0.8597668989257254,-0.8769209848277519
0.3429937645796894,-0.5108371443354899,0.8031833424133958,0.9670743682059224,1.052711134439837,1.3158363098462844
0.27956181895921833,-0.4981521114192706,0.8602616131012173,-1.1177423425453594,-1.0512998147378558,1.3070300556508063
0.21612987333874725,-0.4854670785030514,0.8412355228719435,-1.0470705896385364,-0.9594216073501838,1.3334488182372406
0.13155394584478583,-0.4981521114192706,0.8697746582158542,0.993576275545981,1.1078380588724404,-0.9033397474141861
0.15269792771827617,-0.4981521114192706,0.784157252184122,0.9494064299792166,1.0343354929623025,-0.88572723902323
0.27956181895921833,-0.5108371443354899,0.7651311619548482,-1.0470705896385364,-1.2350562295132004,-0.8593084764367959
0.19498589146525688,-0.5108371443354899,0.7936702972987589,-1.0912404352053007,-1.0421119939990888,-0.9121460016096642
0.2372738552122376,-0.4981521114192706,0.8412355228719435,-1.161912188112124,-1.1615536636030626,1.3070300556508063
0.13155394584478583,-0.4854670785030514,0.7651311619548482,0.9847423064326282,1.0618989551786042,1.3334488182372406
0.19498589146525688,-0.4981521114192706,0.784157252184122,-1.1000744043186537,1.0343354929623025,-0.9033397474141861
0.2372738552122376,-0.523522177251709,0.7746442070694851,-1.0912404352053007,-1.2074927672968987,-0.9121460016096642
0.21612987333874725,-0.4981521114192706,0.8222094326426697,1.002410244659334,-1.1156145599092264,1.3334488182372406
0.19498589146525688,-0.4854670785030514,-1.5084866204433711,1.0377461211127454,1.052711134439837,-0.9033397474141861
0.21612987333874725,-0.5108371443354899,0.784157252184122,-1.073572496978595,1.006772030746001,-0.8769209848277519
0.17384190959176654,-0.4981521114192706,0.7651311619548482,-1.1442442498854182,1.1078380588724404,1.3158363098462844
0.19498589146525688,-0.4854670785030514,0.8317224777573066,0.993576275545981,-1.1523658428642953,1.3070300556508063
0.19498589146525688,-0.4854670785030514,0.8697746582158542,1.0642480284528042,1.0343354929623025,-0.88572723902323
0.30070580083270865,-0.5108371443354899,0.8317224777573066,-1.1354102807720652,1.015959851484768,-0.9033397474141861
0.13155394584478583,-0.5362072101679283,0.8222094326426697,1.0554140593394512,1.0710867759173714,-0.9121460016096642
0.321849782706199,-0.4981521114192706,0.8031833424133958,0.9582403990925695,-1.1615536636030626,1.3246425640417625
0.2372738552122376,-0.4981521114192706,0.8412355228719435,-1.1000744043186537,-1.1248023806479936,-0.9033397474141861
0.21612987333874725,-0.5108371443354899,0.8697746582158542,-1.0912404352053007,1.052711134439837,1.3334488182372406
0.15269792771827617,-0.4981521114192706,0.8126963875280327,1.0289121519993927,0.9424572855746305,1.3334488182372406
0.2372738552122376,-0.4854670785030514,0.784157252184122,1.0200781828860397,1.0802745966561387,-0.9033397474141861
0.27956181895921833,-0.4854670785030514,0.7746442070694851,-1.082406466091948,-1.1523658428642953,-0.8769209848277519
0.3429937645796894,-0.5108371443354899,0.8222094326426697,-1.0912404352053007,-1.1248023806479936,1.3334488182372406
0.19498589146525688,-0.4854670785030514,0.8222094326426697,1.0200781828860397,1.0618989551786042,-0.9121460016096642
0.19498589146525688,-0.4854670785030514,0.8031833424133958,1.0377461211127454,0.9332694648358633,-0.9033397474141861
0.25841783708572796,-0.5108371443354899,0.7936702972987589,-1.1000744043186537,1.0618989551786042,-0.9121460016096642
0.2372738552122376,-0.5108371443354899,0.7651311619548482,-1.1354102807720652,-1.1064267391704592,1.3246425640417625
0.17384190959176654,-0.4854670785030514,0.8222094326426697,0.993576275545981,-1.1248023806479936,1.3246425640417625
0.19498589146525688,-0.4981521114192706,0.8317224777573066,-1.161912188112124,1.0435233137010698,-0.9033397474141861
0.21612987333874725,-0.4981521114192706,0.784157252184122,-1.0470705896385364,0.9792085685296993,-0.8769209848277519
0.25841783708572796,-0.523522177251709,0.784157252184122,1.0642480284528042,-1.1248023806479936,1.3334488182372406
0.25841783708572796,-0.5108371443354899,0.8412355228719435,1.0289121519993927,-1.1156145599092264,1.3246425640417625
0.25841783708572796,-0.4727820455868322,0.8412355228719435,1.0642480284528042,1.089462417394906,1.3334488182372406
0.19498589146525688,-0.523522177251709,0.8126963875280327,-1.0294026514118306,1.052711134439837,-0.9033397474141861
0.25841783708572796,-0.4981521114192706,0.7746442070694851,1.0465800902260984,-1.216680588035666,1.3334488182372406
0.25841783708572796,-0.4854670785030514,0.8031833424133958,1.002410244659334,-1.179929305080597,-0.9033397474141861
0.2372738552122376,-0.4854670785030514,0.8602616131012173,-1.1089083734320064,1.0710867759173714,-0.9033397474141861
0.19498589146525688,-0.4981521114192706,0.8697746582158542,-1.0470705896385364,1.006772030746001,-0.9033397474141861
0.2372738552122376,-0.523522177251709,0.7746442070694851,0.9847423064326282,1.0802745966561387,1.3334488182372406
0.17384190959176654,-0.4854670785030514,0.7556181168402113,1.0377461211127454,-1.1156145599092264,-0.9121460016096642
0.15269792771827617,-0.4981521114192706,0.8126963875280327,-1.153078218998771,-1.1983049465581315,-0.9121460016096642
0.21612987333874725,-0.4981521114192706,0.8126963875280327,1.08191596667951,1.0710867759173714,-0.9121460016096642
0.25841783708572796,-0.4854670785030514,0.8222094326426697,1.002410244659334,1.0986502381336731,-0.9033397474141861
0.27956181895921833,-0.4981521114192706,0.784157252184122,1.08191596667951,-1.1707414843418298,-0.9033397474141861
0.17384190959176654,-0.5108371443354899,0.7936702972987589,-1.0559045587518892,-1.1891171258193642,-0.9033397474141861
0.19498589146525688,-0.5108371443354899,0.7936702972987589,-1.1442442498854182,1.089462417394906,-0.9121460016096642
0.19498589146525688,-0.4727820455868322,0.8412355228719435,1.002410244659334,1.0710867759173714,1.3158363098462844
0.15269792771827617,-0.4854670785030514,0.7746442070694851,-1.0117347131851246,1.015959851484768,-0.88572723902323
0.15269792771827617,-0.523522177251709,0.8126963875280327,1.090749935792863,0.9700207477909321,1.3334488182372406
0.27956181895921833,-0.4981521114192706,0.7651311619548482,1.0465800902260984,1.1078380588724404,1.3334488182372406
0.30070580083270865,-0.4981521114192706,0.8222094326426697,1.0642480284528042,-1.00536071104402,-0.8769209848277519
0.15269792771827617,-0.523522177251709,-1.5084866204433711,-1.0294026514118306,1.0618989551786042,-0.88572723902323
0.19498589146525688,-0.5108371443354899,0.784157252184122,1.073081997566157,0.8965181818807944,1.3334488182372406
0.2372738552122376,-0.4981521114192706,0.7365920266109376,1.0465800902260984,-1.216680588035666,1.3158363098462844
0.2372738552122376,-0.4854670785030514,0.8126963875280327,-1.1354102807720652,-1.0329241732603216,-0.9033397474141861
0.13155394584478583,-0.4854670785030514,-1.5370257557872817,-1.1000744043186537,-1.1248023806479936,-0.8945334932187081
0.19498589146525688,-0.4854670785030514,0.8507485679865804,0.914070553525805,0.924081644097096,-0.8945334932187081
0.21612987333874725,-0.523522177251709,0.784157252184122,0.9582403990925695,0.9883963892684665,1.3070300556508063
0.25841783708572796,-0.4981521114192706,0.7270789814963007,-1.0117347131851246,-1.1064267391704592,-0.9121460016096642
0.13155394584478583,-0.4854670785030514,-1.5370257557872817,-1.1000744043186537,-1.1156145599092264,1.3246425640417625
0.17384190959176654,-0.4981521114192706,-1.4894605302140973,1.0200781828860397,0.8965181818807944,1.3334488182372406
0.25841783708572796,-0.4981521114192706,0.7936702972987589,1.011244213772687,0.758700870799286,-0.8769209848277519
0.30070580083270865,-0.5108371443354899,0.7936702972987589,-1.1265763116587124,-1.1615536636030626,-0.88572723902323
0.15269792771827617,-0.4981521114192706,0.8602616131012173,-1.1442442498854182,-0.9869850695664855,1.3334488182372406
0.11040996397129547,-0.4854670785030514,-1.5465388009019185,1.0465800902260984,1.0618989551786042,1.3158363098462844
0.19498589146525688,-0.4854670785030514,0.8317224777573066,-1.1442442498854182,0.8965181818807944,-0.8945334932187081
0.27956181895921833,-0.5108371443354899,0.784157252184122,-1.073572496978595,1.0802745966561387,-0.8945334932187081
0.2372738552122376,-0.4854670785030514,0.8126963875280327,0.9759083373192753,-0.9777972488277182,1.3334488182372406
0.11040996397129547,-0.4981521114192706,0.8412355228719435,-1.1265763116587124,-1.0512998147378558,-0.8505022222413178
0.19498589146525688,-0.4981521114192706,0.8602616131012173,-1.1000744043186537,0.9883963892684665,-0.8769209848277519
0.19498589146525688,-0.4981521114192706,0.784157252184122,1.0465800902260984,0.924081644097096,1.3070300556508063
0.25841783708572796,-0.4854670785030514,0.7556181168402113,1.0377461211127454,1.0802745966561387,1.3246425640417625
0.27956181895921833,-0.4854670785030514,0.8222094326426697,-1.161912188112124,1.0986502381336731,-0.9033397474141861
0.25841783708572796,-0.4981521114192706,0.8222094326426697,-1.1442442498854182,-1.179929305080597,-0.88572723902323
0.2372738552122376,-0.5108371443354899,0.8031833424133958,1.073081997566157,-1.1707414843418298,-0.8945334932187081
0.15269792771827617,-0.4854670785030514,0.8697746582158542,1.0377461211127454,1.0251476722235353,-0.9121460016096642
0.27956181895921833,-0.4854670785030514,0.8031833424133958,-1.1265763116587124,0.9332694648358633,-0.8945334932187081
0.2372738552122376,-0.4981521114192706,0.7936702972987589,-1.1442442498854182,1.052711134439837,1.3334488182372406
0.2372738552122376,-0.4981521114192706,0.7936702972987589,1.0289121519993927,-1.1064267391704592,1.3334488182372406
0.15269792771827617,-0.5108371443354899,-1.4609213948701865,-1.1177423425453594,1.0618989551786042,-0.8945334932187081
0.27956181895921833,-0.523522177251709,0.8697746582158542,-1.0912404352053007,0.924081644097096,-0.9033397474141861
0.2372738552122376,-0.4981521114192706,0.7746442070694851,-1.1177423425453594,1.0710867759173714,-0.8945334932187081
0.17384190959176654,-0.4981521114192706,0.8697746582158542,1.0200781828860397,1.052711134439837,1.3246425640417625
0.27956181895921833,-0.4854670785030514,0.8222094326426697,-1.1000744043186537,-1.2350562295132004,-0.9121460016096642
0.17384190959176654,-0.4981521114192706,-1.498973575328734,-0.9763988367317132,1.0435233137010698,1.3158363098462844
0.25841783708572796,-0.523522177251709,0.8031833424133958,1.011244213772687,1.0435233137010698,1.3158363098462844
0.30070580083270865,-0.4854670785030514,0.784157252184122,0.9405724608658638,-1.1891171258193642,-0.88572723902323
0.27956181895921833,-0.5108371443354899,0.8222094326426697,-1.0647385278652421,-1.1064267391704592,-0.8593084764367959
0.2372738552122376,-0.523522177251709,0.8126963875280327,-1.073572496978595,1.0435233137010698,1.3334488182372406
0.17384190959176654,-0.523522177251709,0.8031833424133958,0.9405724608658638,1.0435233137010698,1.2806112930643723
0.30070580083270865,-0.4727820455868322,0.879287703330491,1.0377461211127454,1.089462417394906,1.3334488182372406
0.30070580083270865,-0.4854670785030514,0.8697746582158542,-1.0294026514118306,-1.0788632769541575,-0.8681147306322738
0.15269792771827617,-0.5108371443354899,0.879287703330491,-1.082406466091948,-1.0880510976929247,-0.8505022222413178
0.17384190959176654,-0.4854670785030514,0.8222094326426697,0.9759083373192753,1.0618989551786042,-0.8945334932187081
0.2372738552122376,-0.4854670785030514,0.8031833424133958,-1.0912404352053007,1.1078380588724404,-0.9121460016096642
0.11040996397129547,-0.4981521114192706,0.7746442070694851,-1.082406466091948,-1.0145485317827871,1.3070300556508063
0.17384190959176654,-0.4981521114192706,0.8126963875280327,1.0377461211127454,-1.0696754562153903,1.3246425640417625
0.11040996397129547,-0.4854670785030514,0.8697746582158542,1.0377461211127454,0.9332694648358633,-0.8945334932187081
0.21612987333874725,-0.4727820455868322,0.8126963875280327,-1.0912404352053007,0.7403252293217516,-0.8593084764367959
0.321849782706199,-0.523522177251709,0.7556181168402113,-1.1089083734320064,-1.1523658428642953,-0.8945334932187081
0.17384190959176654,-0.4981521114192706,0.8317224777573066,1.0377461211127454,-0.8307921170074427,1.2982238014553282
0.15269792771827617,-0.4854670785030514,0.8507485679865804,1.073081997566157,-1.1707414843418298,1.3246425640417625
0.13155394584478583,-0.4981521114192706,0.8126963875280327,-1.0559045587518892,0.8046399744931222,-0.8945334932187081
0.36413774645317976,-0.4981521114192706,0.7365920266109376,1.0465800902260984,1.052711134439837,-0.9033397474141861
0.2372738552122376,-0.4981521114192706,0.784157252184122,1.0289121519993927,-1.0512998147378558,-0.9033397474141861
0.15269792771827617,-0.5108371443354899,0.8412355228719435,-1.082406466091948,1.0618989551786042,-0.8945334932187081
0.17384190959176654,-0.5108371443354899,0.8126963875280327,-1.1442442498854182,0.9516451063133977,1.3334488182372406
0.21612987333874725,-0.4981521114192706,0.8126963875280327,-1.1265763116587124,-1.216680588035666,-0.9033397474141861
0.27956181895921833,-0.5108371443354899,0.8602616131012173,1.011244213772687,-1.1707414843418298,-0.8945334932187081
0.19498589146525688,-0.4854670785030514,0.8602616131012173,-1.082406466091948,0.9332694648358633,-0.9121460016096642
0.2372738552122376,-0.4981521114192706,0.7175659363816638,-1.1000744043186537,-1.179929305080597,-0.9121460016096642
0.13155394584478583,-0.4854670785030514,0.8317224777573066,1.0465800902260984,-0.9961728903052526,-0.9033397474141861
0.17384190959176654,-0.4727820455868322,0.8697746582158542,-1.1265763116587124,1.0710867759173714,-0.8681147306322738
0.21612987333874725,-0.5108371443354899,0.8126963875280327,-1.0382366205251834,0.9883963892684665,-0.8681147306322738
0.321849782706199,-0.5108371443354899,0.8222094326426697,1.0289121519993927,1.006772030746001,-0.9121460016096642
0.3429937645796894,-0.4727820455868322,0.8317224777573066,0.9405724608658638,-1.1707414843418298,1.3158363098462844
0.27956181895921833,-0.5108371443354899,0.8126963875280327,-1.0559045587518892,-1.0696754562153903,1.3334488182372406
0.15269792771827617,-0.4981521114192706,0.8602616131012173,-1.1354102807720652,-1.2074927672968987,1.3246425640417625
0.17384190959176654,-0.5108371443354899,0.8222094326426697,1.0289121519993927,0.9975842100072337,1.3334488182372406
0.27956181895921833,-0.4981521114192706,0.8031833424133958,1.0200781828860397,-1.1891171258193642,-0.88572723902323
0.21612987333874725,-0.4981521114192706,0.8317224777573066,-1.0559045587518892,-1.2074927672968987,-0.8769209848277519
0.2372738552122376,-0.5108371443354899,-1.5465388009019185,-1.1354102807720652,1.0435233137010698,1.3158363098462844
0.25841783708572796,-0.4854670785030514,0.8031833424133958,1.0642480284528042,-1.216680588035666,1.3158363098462844
0.25841783708572796,-0.4981521114192706,0.8031833424133958,1.090749935792863,-1.0788632769541575,-0.8945334932187081
0.27956181895921833,-0.523522177251709,0.8412355228719435,-1.0647385278652421,-1.1523658428642953,-0.8681147306322738
0.21612987333874725,-0.5108371443354899,0.8031833424133958,1.0377461211127454,0.9975842100072337,-0.9033397474141861
0.17384190959176654,-0.4854670785030514,0.7936702972987589,0.9317384917525109,0.9516451063133977,1.3334488182372406
0.30070580083270865,-0.4854670785030514,0.7746442070694851,-1.1177423425453594,-1.1523658428642953,1.3334488182372406
0.17384190959176654,-0.4981521114192706,0.8126963875280327,-1.073572496978595,-1.097238918431692,1.3158363098462844
0.25841783708572796,-0.5108371443354899,0.8507485679865804,1.0377461211127454,1.0802745966561387,-0.9033397474141861
0.30070580083270865,-0.4727820455868322,0.8507485679865804,1.0200781828860397,1.006772030746001,-0.8681147306322738
0.19498589146525688,-0.4981521114192706,0.7461050717255744,-1.1354102807720652,1.052711134439837,-0.88572723902323
0.17384190959176654,-0.4981521114192706,0.8222094326426697,-1.0647385278652421,-1.1523658428642953,1.3158363098462844
0.2372738552122376,-0.4981521114192706,0.8412355228719435,1.0289121519993927,-1.1707414843418298,1.2982238014553282
0.321849782706199,-0.4981521114192706,0.8317224777573066,1.073081997566157,-1.2074927672968987,-0.9033397474141861
0.21612987333874725,-0.4981521114192706,0.8222094326426697,-1.0559045587518892,1.089462417394906,-0.8769209848277519
0.17384190959176654,-0.4981521114192706,0.8126963875280327,1.0642480284528042,1.006772030746001,-0.88572723902323
0.27956181895921833,-0.4727820455868322,0.8126963875280327,0.9494064299792166,-1.2074927672968987,-0.9121460016096642
0.25841783708572796,-0.5108371443354899,0.8222094326426697,-1.153078218998771,-1.1523658428642953,1.3246425640417625
0.19498589146525688,-0.4981521114192706,0.8222094326426697,-1.1442442498854182,-1.2350562295132004,1.3158363098462844
0.17384190959176654,-0.4981521114192706,0.8317224777573066,1.0200781828860397,1.052711134439837,1.3246425640417625
0.19498589146525688,-0.4727820455868322,0.7651311619548482,1.0377461211127454,-1.1891171258193642,-0.8945334932187081
0.2372738552122376,-0.4981521114192706,0.8031833424133958,-1.153078218998771,-1.2074927672968987,-0.8945334932187081
0.15269792771827617,-0.5108371443354899,-1.517999665558008,-1.0117347131851246,0.9057060026195616,1.3334488182372406
0.21612987333874725,-0.5108371443354899,0.8602616131012173,0.9847423064326282,0.8230156159706566,1.2894175472598504
0.21612987333874725,-0.5108371443354899,0.8602616131012173,0.9847423064326282,0.8781425404032599,1.3158363098462844
0.36413774645317976,-0.4727820455868322,0.8126963875280327,-1.1442442498854182,-1.0880510976929247,-0.88572723902323
0.19498589146525688,-0.523522177251709,0.8507485679865804,-1.1089083734320064,-0.9961728903052526,-0.8681147306322738
0.21612987333874725,-0.4981521114192706,0.8126963875280327,1.0554140593394512,-1.1615536636030626,-0.8769209848277519
0.13155394584478583,-0.4854670785030514,0.8412355228719435,1.08191596667951,0.9332694648358633,-0.9121460016096642
0.11040996397129547,-0.5108371443354899,0.7936702972987589,-1.0559045587518892,0.8505790781869582,1.2982238014553282
0.25841783708572796,-0.4727820455868322,0.7461050717255744,-1.1354102807720652,-1.097238918431692,1.2982238014553282
0.15269792771827617,-0.4727820455868322,0.8222094326426697,1.0377461211127454,-0.9502337866114166,-0.9033397474141861
0.11040996397129547,-0.4981521114192706,0.8317224777573066,-1.1000744043186537,1.089462417394906,-0.8328897138503617
0.17384190959176654,-0.5108371443354899,0.8126963875280327,-1.1089083734320064,0.841391257448191,-0.9121460016096642
0.15269792771827617,-0.5108371443354899,0.7746442070694851,0.9847423064326282,0.9332694648358633,1.2718050388688942
0.25841783708572796,-0.4727820455868322,0.7746442070694851,-1.153078218998771,-1.0421119939990888,1.3070300556508063
0.19498589146525688,-0.4854670785030514,0.8031833424133958,-0.9763988367317132,-0.8124164755299083,-0.8505022222413178
0.13155394584478583,-0.4981521114192706,-1.5465388009019185,-1.1265763116587124,1.0802745966561387,-0.8152772054594055
0.17384190959176654,-0.523522177251709,0.8031833424133958,0.993576275545981,0.8230156159706566,-0.8681147306322738
0.27956181895921833,-0.5108371443354899,0.8126963875280327,1.090749935792863,0.9057060026195616,1.3246425640417625
0.27956181895921833,-0.4981521114192706,0.7936702972987589,-1.0117347131851246,-1.143178022125528,1.2718050388688942
0.15269792771827617,-0.4854670785030514,0.8697746582158542,-1.153078218998771,-1.060487635476623,1.2982238014553282
0.19498589146525688,-0.4854670785030514,0.8317224777573066,0.9759083373192753,-1.1891171258193642,-0.8593084764367959
0.21612987333874725,-0.4981521114192706,0.7936702972987589,1.073081997566157,0.9424572855746305,-0.8328897138503617
0.27956181895921833,-0.5108371443354899,0.8031833424133958,-1.0647385278652421,1.0986502381336731,-0.88572723902323
0.15269792771827617,-0.5108371443354899,0.8222094326426697,1.0642480284528042,-1.1707414843418298,1.2806112930643723
0.21612987333874725,-0.4727820455868322,0.7936702972987589,0.993576275545981,-1.179929305080597,1.3070300556508063
0.19498589146525688,-0.4854670785030514,0.7746442070694851,-1.1089083734320064,-1.2350562295132004,-0.9033397474141861
0.11040996397129547,-0.5108371443354899,0.8222094326426697,-1.0647385278652421,1.015959851484768,-0.8945334932187081
0.17384190959176654,-0.4981521114192706,0.7746442070694851,1.0377461211127454,1.0251476722235353,-0.8681147306322738
0.21612987333874725,-0.5108371443354899,0.784157252184122,1.011244213772687,-1.2258684087744331,-0.9033397474141861
0.2372738552122376,-0.5108371443354899,0.8507485679865804,-1.1089083734320064,-1.216680588035666,1.3158363098462844
0.19498589146525688,-0.4981521114192706,0.7936702972987589,-1.0912404352053007,-1.1983049465581315,1.3070300556508063
0.15269792771827617,-0.4854670785030514,0.8507485679865804,0.9405724608658638,1.0343354929623025,1.3158363098462844
0.15269792771827617,-0.5108371443354899,0.7746442070694851,1.0377461211127454,0.9608329270521648,-0.88572723902323
0.27956181895921833,-0.5108371443354899,0.784157252184122,-1.1000744043186537,1.1078380588724404,-0.8769209848277519
0.30070580083270865,-0.523522177251709,0.8602616131012173,1.073081997566157,-1.1339902013867609,1.3158363098462844
0.30070580083270865,-0.4854670785030514,0.8222094326426697,1.08191596667951,0.9792085685296993,-0.9121460016096642
0.25841783708572796,-0.4854670785030514,0.8412355228719435,-1.1177423425453594,0.9516451063133977,-0.9033397474141861
0.3429937645796894,-0.523522177251709,0.8031833424133958,-1.0294026514118306,-1.1707414843418298,-0.8945334932187081
0.27956181895921833,-0.4981521114192706,0.8412355228719435,1.073081997566157,-1.0145485317827871,-0.9121460016096642
0.21612987333874725,-0.5108371443354899,0.8412355228719435,0.9847423064326282,-1.216680588035666,1.3246425640417625
0.17384190959176654,-0.4854670785030514,0.7936702972987589,-1.1177423425453594,0.9516451063133977,-0.8945334932187081
0.15269792771827617,-0.4981521114192706,0.7270789814963007,-1.1177423425453594,-1.1983049465581315,1.3334488182372406
0.11040996397129547,-0.4981521114192706,0.7746442070694851,1.0289121519993927,-1.0696754562153903,1.3158363098462844
0.04697801835082441,-0.4727820455868322,0.8507485679865804,1.0554140593394512,1.0618989551786042,-0.9033397474141861
0.06812200022431476,-0.4854670785030514,0.7651311619548482,-1.1354102807720652,0.9424572855746305,-0.8945334932187081
0.15269792771827617,-0.5108371443354899,0.7461050717255744,1.0377461211127454,1.006772030746001,-0.9033397474141861
0.25841783708572796,-0.4981521114192706,0.784157252184122,0.9494064299792166,-1.097238918431692,1.3158363098462844
0.21612987333874725,-0.4854670785030514,0.8317224777573066,1.073081997566157,-1.1707414843418298,-0.9121460016096642
0.19498589146525688,-0.4981521114192706,0.8602616131012173,-1.0470705896385364,0.9057060026195616,-0.88572723902323
0.19498589146525688,-0.5108371443354899,0.8602616131012173,1.0377461211127454,0.841391257448191,1.3334488182372406
0.17384190959176654,-0.4981521114192706,0.7936702972987589,1.0377461211127454,1.0251476722235353,-0.9121460016096642
0.19498589146525688,-0.4981521114192706,0.7651311619548482,1.011244213772687,-1.1156145599092264,1.3334488182372406
0.17384190959176654,-0.4854670785030514,0.8222094326426697,-0.9675648676183604,-0.9869850695664855,-0.9033397474141861
0.17384190959176654,-0.4854670785030514,-1.527512710672645,1.011244213772687,-1.1891171258193642,-0.9033397474141861
0.27956181895921833,-0.5108371443354899,0.8317224777573066,1.011244213772687,1.0343354929623025,-0.88572723902323
0.21612987333874725,-0.5108371443354899,0.7936702972987589,-1.153078218998771,1.0710867759173714,-0.9033397474141861
0.17384190959176654,-0.5108371443354899,0.7365920266109376,-1.1442442498854182,-1.1339902013867609,1.2894175472598504
0.08926598209780512,-0.4854670785030514,0.7936702972987589,1.002410244659334,-1.1983049465581315,1.3070300556508063
0.15269792771827617,-0.4854670785030514,0.8126963875280327,1.0377461211127454,1.0343354929623025,1.3334488182372406
0.21612987333874725,-0.5108371443354899,0.8126963875280327,-1.0912404352053007,1.0343354929623025,-0.8681147306322738
0.2372738552122376,-0.5362072101679283,0.879287703330491,0.9759083373192753,0.9883963892684665,-0.9033397474141861
0.321849782706199,-0.4981521114192706,0.8126963875280327,1.011244213772687,-1.179929305080597,1.3334488182372406
0.2372738552122376,-0.4981521114192706,0.8317224777573066,-1.1442442498854182,-1.179929305080597,1.3334488182372406
0.21612987333874725,-0.523522177251709,0.8412355228719435,-1.1089083734320064,1.1078380588724404,1.3246425640417625
0.21612987333874725,-0.4981521114192706,0.8412355228719435,1.0465800902260984,0.9975842100072337,-0.8945334932187081
0.321849782706199,-0.4981521114192706,0.8126963875280327,1.0554140593394512,1.0802745966561387,-0.88572723902323
0.27956181895921833,-0.5108371443354899,0.8412355228719435,-1.0912404352053007,-1.179929305080597,-0.9033397474141861
0.2372738552122376,-0.4854670785030514,0.879287703330491,-1.1089083734320064,-1.2350562295132004,-0.9121460016096642
0.13155394584478583,-0.4854670785030514,-1.5465388009019185,0.9405724608658638,1.015959851484768,1.3070300556508063
0.25841783708572796,-0.4981521114192706,0.8126963875280327,-1.153078218998771,0.9700207477909321,-0.8945334932187081
0.27956181895921833,-0.4981521114192706,0.784157252184122,-1.1089083734320064,1.1078380588724404,1.3158363098462844
0.2372738552122376,-0.4981521114192706,0.8412355228719435,1.073081997566157,-1.2258684087744331,1.3246425640417625
0.30070580083270865,-0.4854670785030514,0.8602616131012173,1.002410244659334,1.0251476722235353,-0.9121460016096642
0.30070580083270865,-0.4854670785030514,0.8222094326426697,1.0289121519993927,1.015959851484768,-0.9033397474141861
0.30070580083270865,-0.523522177251709,-1.527512710672645,-1.0647385278652421,1.0251476722235353,-0.88572723902323
0.3429937645796894,-0.5108371443354899,0.8507485679865804,1.0465800902260984,-1.1983049465581315,1.3334488182372406
0.25841783708572796,-0.4854670785030514,0.8412355228719435,0.993576275545981,-1.0788632769541575,1.3334488182372406
0.21612987333874725,-0.4981521114192706,0.8412355228719435,-1.0647385278652421,1.089462417394906,-0.9121460016096642
0.21612987333874725,-0.4854670785030514,0.8126963875280327,-1.1000744043186537,1.0802745966561387,1.3334488182372406
0.2372738552122376,-0.4981521114192706,0.7746442070694851,0.9759083373192753,-1.2074927672968987,1.3334488182372406
0.21612987333874725,-0.4981521114192706,0.8126963875280327,-1.161912188112124,-1.179929305080597,-0.8945334932187081
0.19498589146525688,-0.523522177251709,0.8412355228719435,-1.0912404352053007,-1.1983049465581315,-0.9121460016096642
0.2372738552122376,-0.4981521114192706,0.8126963875280327,1.0289121519993927,1.0618989551786042,1.3334488182372406
0.2372738552122376,-0.4981521114192706,0.7936702972987589,1.0554140593394512,-1.2258684087744331,-0.9033397474141861
0.2372738552122376,-0.4981521114192706,0.8126963875280327,1.08191596667951,-1.179929305080597,-0.9033397474141861
0.17384190959176654,-0.5108371443354899,0.8031833424133958,-1.0294026514118306,1.1078380588724404,-0.9033397474141861
0.19498589146525688,-0.5108371443354899,0.8602616131012173,1.090749935792863,1.0986502381336731,1.3334488182372406
0.21612987333874725,-0.4854670785030514,-1.5465388009019185,0.9494064299792166,1.0710867759173714,1.3158363098462844
0.2372738552122376,-0.5108371443354899,0.8031833424133958,-1.0559045587518892,-1.1891171258193642,-0.88572723902323
0.19498589146525688,-0.523522177251709,0.7746442070694851,1.073081997566157,-1.1248023806479936,1.3158363098462844
0.19498589146525688,-0.4981521114192706,0.8317224777573066,-1.1442442498854182,-1.1983049465581315,-0.9121460016096642
0.19498589146525688,-0.4981521114192706,0.8317224777573066,1.011244213772687,1.0251476722235353,-0.9121460016096642
0.21612987333874725,-0.5108371443354899,0.8031833424133958,-1.0647385278652421,1.052711134439837,-0.8945334932187081
0.19498589146525688,-0.4981521114192706,0.8317224777573066,1.0465800902260984,1.1078380588724404,1.3070300556508063
0.21612987333874725,-0.4981521114192706,0.7556181168402113,0.993576275545981,-1.2350562295132004,-0.9121460016096642
0.27956181895921833,-0.4981521114192706,0.8126963875280327,-1.1089083734320064,-1.1615536636030626,-0.88572723902323
0.19498589146525688,-0.5108371443354899,0.8317224777573066,-1.153078218998771,1.0986502381336731,-0.8769209848277519
0.19498589146525688,-0.4981521114192706,0.8222094326426697,1.0642480284528042,1.0802745966561387,-0.9033397474141861
0.15269792771827617,-0.4727820455868322,0.8697746582158542,1.0642480284528042,0.9608329270521648,1.3246425640417625
0.3429937645796894,-0.5108371443354899,0.8031833424133958,-1.0912404352053007,0.9516451063133977,1.3246425640417625
0.27956181895921833,-0.4981521114192706,0.7556181168402113,-1.1442442498854182,-1.0421119939990888,1.3070300556508063
0.21612987333874725,-0.523522177251709,-1.5370257557872817,-1.1354102807720652,-1.1156145599092264,-0.8769209848277519
0.21612987333874725,-0.4854670785030514,-1.517999665558008,0.993576275545981,0.9148938233583288,-0.8945334932187081
0.21612987333874725,-0.4981521114192706,0.8031833424133958,-1.0382366205251834,0.8322034367094239,-0.8945334932187081
0.27956181895921833,-0.523522177251709,0.8031833424133958,-1.1354102807720652,-1.1064267391704592,1.3070300556508063
0.19498589146525688,-0.4981521114192706,0.8126963875280327,1.002410244659334,-0.9042946829175804,1.3158363098462844
0.19498589146525688,-0.4854670785030514,-1.5370257557872817,1.0377461211127454,-1.2074927672968987,-0.8769209848277519
0.19498589146525688,-0.5108371443354899,0.7936702972987589,-1.1000744043186537,0.8505790781869582,-0.8593084764367959
0.21612987333874725,-0.4981521114192706,0.7651311619548482,1.090749935792863,0.9424572855746305,1.3334488182372406
0.25841783708572796,-0.5108371443354899,0.8126963875280327,1.002410244659334,1.0251476722235353,1.2894175472598504
0.27956181895921833,-0.4854670785030514,0.8222094326426697,1.0465800902260984,-1.1523658428642953,1.2982238014553282
0.19498589146525688,-0.4854670785030514,0.8412355228719435,-1.0029007440717719,-1.0421119939990888,-0.8681147306322738
0.19498589146525688,-0.4981521114192706,-1.5370257557872817,0.9670743682059224,-1.0788632769541575,-0.8505022222413178
0.21612987333874725,-0.4981521114192706,0.8602616131012173,1.0200781828860397,0.8689547196644927,-0.8769209848277519
0.19498589146525688,-0.5488922430841475,0.8507485679865804,-1.1442442498854182,0.7770765122768205,1.2894175472598504
0.30070580083270865,-0.4854670785030514,0.7461050717255744,-1.1177423425453594,-1.1707414843418298,1.254192530477938
0.19498589146525688,-0.5108371443354899,-1.5370257557872817,1.0465800902260984,-0.8216042962686755,1.3070300556508063
0.19498589146525688,-0.4854670785030514,-1.5084866204433711,0.9582403990925695,-1.1891171258193642,-0.8505022222413178
0.19498589146525688,-0.5108371443354899,0.8412355228719435,-1.1265763116587124,0.9700207477909321,-0.7888584428729714
0.21612987333874725,-0.5362072101679283,0.7461050717255744,1.0554140593394512,0.9700207477909321,-0.9121460016096642
0.30070580083270865,-0.523522177251709,0.7365920266109376,0.9494064299792166,-1.1615536636030626,1.236580022086982
0.21612987333874725,-0.4854670785030514,0.8697746582158542,1.002410244659334,1.0435233137010698,1.254192530477938
0.321849782706199,-0.4981521114192706,0.7746442070694851,-1.0470705896385364,1.089462417394906,-0.9033397474141861
0.25841783708572796,-0.5108371443354899,0.8317224777573066,-1.161912188112124,-1.1064267391704592,-0.8328897138503617
0.15269792771827617,-0.4854670785030514,0.8697746582158542,1.0289121519993927,1.1078380588724404,-0.7976646970684494
0.27956181895921833,-0.4981521114192706,0.8222094326426697,-1.1354102807720652,0.9516451063133977,-0.8945334932187081
0.27956181895921833,-0.5362072101679283,0.8317224777573066,-1.0559045587518892,1.052711134439837,1.262998784673416
0.15269792771827617,-0.4727820455868322,0.8222094326426697,1.0377461211127454,-1.097238918431692,1.262998784673416
0.15269792771827617,-0.460097012670613,0.8031833424133958,1.0289121519993927,-1.1891171258193642,-0.9121460016096642
0.15269792771827617,-0.4854670785030514,0.8031833424133958,-1.082406466091948,0.9975842100072337,-0.8064709512639275
0.2372738552122376,-0.5108371443354899,0.8222094326426697,-1.1265763116587124,0.9883963892684665,-0.8505022222413178
0.30070580083270865,-0.523522177251709,0.784157252184122,0.9847423064326282,-1.2074927672968987,1.3070300556508063
0.2372738552122376,-0.4981521114192706,0.8126963875280327,0.993576275545981,-1.143178022125528,1.2806112930643723
0.2372738552122376,-0.4981521114192706,0.8126963875280327,-1.1000744043186537,1.0802745966561387,1.3158363098462844
0.27956181895921833,-0.4981521114192706,0.784157252184122,-1.1177423425453594,1.0802745966561387,-0.8945334932187081
0.25841783708572796,-0.4981521114192706,0.7936702972987589,1.011244213772687,-1.2350562295132004,-0.88572723902323
0.17384190959176654,-0.4981521114192706,0.8412355228719435,1.0465800902260984,-1.2350562295132004,-0.8681147306322738
0.21612987333874725,-0.5108371443354899,0.8317224777573066,-1.1442442498854182,1.0435233137010698,1.3334488182372406
0.2372738552122376,-0.4981521114192706,0.8031833424133958,-1.1442442498854182,1.052711134439837,1.3158363098462844
0.321849782706199,-0.4981521114192706,0.8317224777573066,0.9759083373192753,-1.2258684087744331,1.3246425640417625
0.17384190959176654,-0.4981521114192706,0.8697746582158542,1.073081997566157,-1.2350562295132004,-0.88572723902323
0.21612987333874725,-0.5108371443354899,0.7936702972987589,-1.0559045587518892,-1.2350562295132004,-0.8681147306322738
0.2372738552122376,-0.5108371443354899,0.8031833424133958,1.0554140593394512,1.0986502381336731,1.3334488182372406
0.21612987333874725,-0.4981521114192706,0.7556181168402113,0.993576275545981,-1.2074927672968987,1.3158363098462844
0.21612987333874725,-0.4981521114192706,0.7936702972987589,-1.1089083734320064,1.1078380588724404,1.3334488182372406
0.21612987333874725,-0.5108371443354899,0.8317224777573066,-1.0647385278652421,1.0251476722235353,-0.8945334932187081
0.19498589146525688,-0.523522177251709,0.8126963875280327,1.08191596667951,1.0343354929623025,-0.8945334932187081
0.21612987333874725,-0.5108371443354899,0.7936702972987589,1.0200781828860397,-1.1891171258193642,-0.9033397474141861
0.25841783708572796,-0.523522177251709,0.8031833424133958,-1.1089083734320064,-1.216680588035666,-0.9033397474141861
0.2372738552122376,-0.523522177251709,0.8412355228719435,1.073081997566157,-1.2350562295132004,1.3158363098462844
0.21612987333874725,-0.4981521114192706,0.7936702972987589,1.0200781828860397,-1.216680588035666,1.3158363098462844
0.19498589146525688,-0.4854670785030514,0.8697746582158542,1.0642480284528042,1.006772030746001,-0.8945334932187081
0.17384190959176654,-0.4981521114192706,0.8031833424133958,-1.0205686822984776,1.006772030746001,-0.8681147306322738
0.19498589146525688,-0.5108371443354899,0.8317224777573066,1.011244213772687,1.052711134439837,-0.9121460016096642
0.19498589146525688,-0.4854670785030514,0.7936702972987589,0.9229045226391579,-1.216680588035666,1.3158363098462844
0.21612987333874725,-0.4981521114192706,0.8031833424133958,-1.1177423425453594,-1.1156145599092264,-0.9033397474141861
0.15269792771827617,-0.523522177251709,0.8126963875280327,-1.0294026514118306,-1.1891171258193642,-0.9121460016096642
0.21612987333874725,-0.523522177251709,0.8222094326426697,1.0642480284528042,0.9700207477909321,-0.8945334932187081
0.2372738552122376,-0.5108371443354899,0.8317224777573066,0.9670743682059224,0.9424572855746305,1.3334488182372406
0.27956181895921833,-0.4981521114192706,0.784157252184122,-1.1000744043186537,-1.2350562295132004,-0.8945334932187081
0.25841783708572796,-0.5108371443354899,0.8126963875280327,-1.153078218998771,-1.1339902013867609,1.3246425640417625
0.19498589146525688,-0.4981521114192706,0.784157252184122,1.0377461211127454,-1.1248023806479936,1.3246425640417625
0.15269792771827617,-0.4727820455868322,0.8317224777573066,1.073081997566157,1.0710867759173714,-0.8945334932187081
0.19498589146525688,-0.4981521114192706,0.784157252184122,-1.0382366205251834,1.089462417394906,-0.8681147306322738
0.25841783708572796,-0.5108371443354899,0.879287703330491,1.0465800902260984,-1.216680588035666,-0.9033397474141861
0.25841783708572796,-0.4854670785030514,0.8412355228719435,0.9847423064326282,-1.2350562295132004,1.3246425640417625
0.17384190959176654,-0.4981521114192706,0.8412355228719435,-1.153078218998771,0.9608329270521648,-0.9121460016096642
0.21612987333874725,-0.4981521114192706,0.7746442070694851,-1.1000744043186537,1.089462417394906,1.3334488182372406
0.19498589146525688,-0.5108371443354899,0.8602616131012173,-1.1354102807720652,-1.1707414843418298,-0.9033397474141861
0.19498589146525688,-0.4727820455868322,0.8602616131012173,1.0642480284528042,0.9883963892684665,-0.8945334932187081
0.2372738552122376,-0.4981521114192706,0.7936702972987589,-1.073572496978595,1.0343354929623025,-0.8593084764367959
0.21612987333874725,-0.4981521114192706,0.8031833424133958,-1.082406466091948,-1.1523658428642953,-0.9121460016096642
0.2372738552122376,-0.5108371443354899,0.8697746582158542,1.0200781828860397,1.089462417394906,1.3158363098462844
0.15269792771827617,-0.5108371443354899,0.8697746582158542,0.9229045226391579,0.9148938233583288,1.3158363098462844
0.17384190959176654,-0.460097012670613,0.784157252184122,-0.9587308985050074,1.0802745966561387,-0.8593084764367959
0.25841783708572796,-0.5108371443354899,0.8222094326426697,1.0377461211127454,-1.097238918431692,-0.8945334932187081
0.27956181895921833,-0.4981521114192706,-1.5370257557872817,0.9847423064326282,-1.179929305080597,-0.8945334932187081
0.21612987333874725,-0.4981521114192706,-1.5084866204433711,-1.1089083734320064,0.9608329270521648,-0.9033397474141861
0.21612987333874725,-0.5108371443354899,0.784157252184122,-1.1265763116587124,0.9792085685296993,1.3070300556508063
0.2372738552122376,-0.4981521114192706,0.784157252184122,1.002410244659334,-1.0880510976929247,1.2894175472598504
0.21612987333874725,-0.4854670785030514,0.8602616131012173,-1.161912188112124,-1.097238918431692,-0.88572723902323
0.2372738552122376,-0.5108371443354899,0.8317224777573066,-1.0470705896385364,1.1078380588724404,-0.8593084764367959
0.21612987333874725,-0.5108371443354899,0.8317224777573066,1.0289121519993927,0.9700207477909321,-0.9033397474141861
0.2372738552122376,-0.5108371443354899,-1.5370257557872817,0.8522327697323349,1.0618989551786042,1.2982238014553282
0.25841783708572796,-0.5108371443354899,0.879287703330491,-1.0647385278652421,1.0618989551786042,-0.9033397474141861
0.36413774645317976,-0.5108371443354899,0.7936702972987589,-1.073572496978595,-1.2350562295132004,-0.9121460016096642
0.19498589146525688,-0.4854670785030514,-1.5465388009019185,1.0554140593394512,0.9975842100072337,-0.8945334932187081
0.2372738552122376,-0.4981521114192706,0.8602616131012173,1.0554140593394512,0.9792085685296993,-0.8769209848277519
0.21612987333874725,-0.5108371443354899,0.8412355228719435,-1.1177423425453594,0.9792085685296993,-0.9033397474141861
0.17384190959176654,-0.523522177251709,0.7556181168402113,0.9494064299792166,-1.216680588035666,1.2894175472598504
0.19498589146525688,-0.4854670785030514,0.8031833424133958,0.9052365844124521,-1.0329241732603216,-0.9121460016096642
0.17384190959176654,-0.4854670785030514,-1.5370257557872817,-1.161912188112124,-1.0880510976929247,-0.8593084764367959
0.15269792771827617,-0.5108371443354899,-1.5370257557872817,-1.1265763116587124,0.9792085685296993,-0.8416959680458397
0.2372738552122376,-0.5108371443354899,0.8126963875280327,0.9759083373192753,1.015959851484768,1.3334488182372406
0.27956181895921833,-0.4981521114192706,0.8031833424133958,1.090749935792863,-1.1615536636030626,1.2894175472598504
0.21612987333874725,-0.4981521114192706,0.8317224777573066,-0.9852328058450661,-1.1064267391704592,1.3070300556508063
0.19498589146525688,-0.5108371443354899,0.8031833424133958,1.0642480284528042,-1.179929305080597,1.3246425640417625
0.17384190959176654,-0.4854670785030514,0.7746442070694851,0.9670743682059224,-1.2350562295132004,-0.8769209848277519
0.19498589146525688,-0.5108371443354899,0.8126963875280327,-1.1265763116587124,1.052711134439837,-0.8505022222413178
0.21612987333874725,-0.523522177251709,0.8126963875280327,-1.1442442498854182,1.0710867759173714,-0.9121460016096642
0.21612987333874725,-0.4981521114192706,0.8222094326426697,1.011244213772687,-1.2350562295132004,1.2982238014553282
0.2372738552122376,-0.4981521114192706,0.8126963875280327,1.0465800902260984,-1.2258684087744331,1.3070300556508063
0.21612987333874725,-0.4854670785030514,0.8317224777573066,-1.073572496978595,1.0435233137010698,-0.88572723902323
0.2372738552122376,-0.4981521114192706,0.8412355228719435,-1.1265763116587124,1.0343354929623025,-0.8505022222413178
0.21612987333874725,-0.5108371443354899,0.8222094326426697,0.9670743682059224,1.0802745966561387,-0.9121460016096642
0.25841783708572796,-0.5108371443354899,0.8412355228719435,-1.1442442498854182,1.089462417394906,1.3246425640417625
0.15269792771827617,-0.4981521114192706,0.8507485679865804,-1.0382366205251834,-1.1983049465581315,1.3334488182372406
0.21612987333874725,-0.4981521114192706,0.8126963875280327,1.0200781828860397,-1.179929305080597,1.3334488182372406
0.21612987333874725,-0.4981521114192706,0.8697746582158542,1.090749935792863,1.052711134439837,-0.88572723902323
0.30070580083270865,-0.5108371443354899,0.8126963875280327,-1.0559045587518892,0.9608329270521648,-0.8681147306322738
0.27956181895921833,-0.5108371443354899,0.7651311619548482,-1.1265763116587124,-1.0880510976929247,1.3334488182372406
0.08926598209780512,-0.4981521114192706,0.8317224777573066,1.073081997566157,-1.00536071104402,1.2894175472598504
0.17384190959176654,-0.4981521114192706,0.879287703330491,1.002410244659334,1.0251476722235353,1.3334488182372406
0.27956181895921833,-0.5108371443354899,0.8697746582158542,-1.0647385278652421,0.8322034367094239,-0.8681147306322738
0.38528172832667007,-0.5108371443354899,0.7556181168402113,-1.1089083734320064,-1.2074927672968987,-0.88572723902323
0.21612987333874725,-0.4854670785030514,0.7936702972987589,1.0465800902260984,-0.9961728903052526,-0.9033397474141861
0.08926598209780512,-0.4727820455868322,0.8507485679865804,1.0642480284528042,-1.179929305080597,1.3334488182372406
0.11040996397129547,-0.5108371443354899,0.8126963875280327,-1.082406466091948,0.9792085685296993,-0.9033397474141861
0.321849782706199,-0.4981521114192706,0.8222094326426697,1.0200781828860397,1.015959851484768,1.3334488182372406
0.321849782706199,-0.4981521114192706,0.8412355228719435,1.011244213772687,1.0986502381336731,-0.9033397474141861
0.25841783708572796,-0.4981521114192706,0.7936702972987589,-1.1265763116587124,-1.1523658428642953,-0.9033397474141861
0.19498589146525688,-0.4981521114192706,0.8412355228719435,-1.0029007440717719,-1.1983049465581315,-0.8769209848277519
0.17384190959176654,-0.5108371443354899,0.784157252184122,0.993576275545981,-1.216680588035666,1.3070300556508063
0.2372738552122376,-0.4854670785030514,0.8507485679865804,1.0554140593394512,1.0986502381336731,-0.9121460016096642
0.2372738552122376,-0.4854670785030514,0.8222094326426697,-1.1089083734320064,1.015959851484768,-0.9033397474141861
0.21612987333874725,-0.4981521114192706,0.7936702972987589,1.08191596667951,-1.2258684087744331,1.3334488182372406
0.15269792771827617,-0.4854670785030514,0.7461050717255744,-1.153078218998771,-1.1707414843418298,-0.8945334932187081
0.13155394584478583,-0.4854670785030514,0.8317224777573066,1.073081997566157,1.0986502381336731,-0.8945334932187081
0.2372738552122376,-0.4981521114192706,0.8507485679865804,-1.0294026514118306,1.052711134439837,-0.9033397474141861
0.21612987333874725,-0.4981521114192706,0.8126963875280327,1.073081997566157,0.9792085685296993,-0.9033397474141861
0.25841783708572796,-0.4727820455868322,0.8697746582158542,0.9317384917525109,1.0710867759173714,-0.9121460016096642
0.2372738552122376,-0.5108371443354899,0.8126963875280327,-1.0559045587518892,-1.2074927672968987,-0.8945334932187081
0.13155394584478583,-0.4981521114192706,0.8031833424133958,-1.0912404352053007,1.0986502381336731,-0.9121460016096642
0.21612987333874725,-0.5108371443354899,0.8031833424133958,0.9405724608658638,1.0343354929623025,1.2982238014553282
0.2372738552122376,-0.4854670785030514,0.8412355228719435,1.0377461211127454,0.9700207477909321,-0.9121460016096642
0.17384190959176654,-0.523522177251709,0.879287703330491,-1.0382366205251834,1.015959851484768,-0.9033397474141861
0.17384190959176654,-0.4981521114192706,0.8507485679865804,1.073081997566157,1.1078380588724404,-0.9121460016096642
0.25841783708572796,-0.4854670785030514,0.8317224777573066,0.9670743682059224,-1.216680588035666,-0.9033397474141861
0.30070580083270865,-0.4981521114192706,0.8507485679865804,-1.1442442498854182,1.0618989551786042,-0.8945334932187081
0.321849782706199,-0.5108371443354899,0.8507485679865804,-1.1265763116587124,1.052711134439837,1.3334488182372406
0.3429937645796894,-0.523522177251709,0.8222094326426697,1.0554140593394512,-1.143178022125528,1.3070300556508063
0.19498589146525688,-0.4854670785030514,-1.5465388009019185,1.0465800902260984,-1.179929305080597,1.3334488182372406
0.17384190959176654,-0.4981521114192706,0.8126963875280327,-1.0382366205251834,0.9883963892684665,-0.8769209848277519
0.25841783708572796,-0.523522177251709,0.8126963875280327,-1.161912188112124,1.0710867759173714,1.3334488182372406
0.27956181895921833,-0.4981521114192706,0.8317224777573066,1.08191596667951,-1.1707414843418298,-0.8945334932187081
0.27956181895921833,-0.4981521114192706,0.8317224777573066,-1.1000744043186537,-1.1891171258193642,-0.88572723902323
0.21612987333874725,-0.523522177251709,0.8031833424133958,-1.1354102807720652,-1.1983049465581315,1.3334488182372406
0.21612987333874725,-0.5108371443354899,0.8031833424133958,1.0465800902260984,-1.2350562295132004,-0.9033397474141861
0.27956181895921833,-0.5108371443354899,0.8126963875280327,1.090749935792863,1.089462417394906,-0.8945334932187081
0.2372738552122376,-0.523522177251709,0.8317224777573066,-1.1265763116587124,1.0618989551786042,-0.9033397474141861
0.19498589146525688,-0.523522177251709,0.8412355228719435,1.090749935792863,1.0251476722235353,-0.8945334932187081
0.27956181895921833,-0.4981521114192706,0.8222094326426697,0.8787346770723935,1.0435233137010698,1.3246425640417625
0.27956181895921833,-0.4981521114192706,0.8507485679865804,1.0642480284528042,-1.2350562295132004,1.3158363098462844
0.19498589146525688,-0.4981521114192706,0.7746442070694851,-1.0029007440717719,-1.1707414843418298,-0.9033397474141861
0.13155394584478583,-0.5108371443354899,0.8031833424133958,1.0289121519993927,-1.0880510976929247,-0.9033397474141861
0.15269792771827617,-0.5108371443354899,0.8412355228719435,0.9229045226391579,1.015959851484768,-0.8769209848277519
0.2372738552122376,-0.523522177251709,0.7936702972987589,-1.1265763116587124,0.9332694648358633,-0.8769209848277519
0.21612987333874725,-0.523522177251709,0.8507485679865804,0.9759083373192753,1.052711134439837,1.2894175472598504
0.19498589146525688,-0.5108371443354899,-1.527512710672645,0.9582403990925695,-1.1156145599092264,1.2718050388688942
0.27956181895921833,-0.4854670785030514,0.8317224777573066,-1.1177423425453594,-1.060487635476623,-0.8769209848277519
0.25841783708572796,-0.4981521114192706,0.8507485679865804,-1.0559045587518892,1.1078380588724404,-0.8593084764367959
0.21612987333874725,-0.5108371443354899,0.8031833424133958,1.073081997566157,1.0710867759173714,-0.8681147306322738
0.30070580083270865,-0.4854670785030514,0.7746442070694851,1.002410244659334,-1.2258684087744331,1.3334488182372406
0.2372738552122376,-0.4981521114192706,-1.5465388009019185,-1.073572496978595,-1.1707414843418298,1.3070300556508063
0.2372738552122376,-0.5108371443354899,0.8602616131012173,-1.0912404352053007,1.052711134439837,1.3158363098462844
0.19498589146525688,-0.4981521114192706,0.784157252184122,1.011244213772687,1.052711134439837,-0.8945334932187081
0.21612987333874725,-0.4981521114192706,0.8222094326426697,0.9847423064326282,1.089462417394906,-0.8681147306322738
0.25841783708572796,-0.5108371443354899,0.8317224777573066,-1.0647385278652421,-1.2258684087744331,-0.8769209848277519
0.21612987333874725,-0.4981521114192706,0.8317224777573066,-1.1089083734320064,-1.216680588035666,1.3246425640417625
0.321849782706199,-0.4727820455868322,0.8317224777573066,0.9670743682059224,-1.216680588035666,1.2982238014553282
0.21612987333874725,-0.4981521114192706,0.8412355228719435,1.090749935792863,1.0710867759173714,-0.9033397474141861
0.21612987333874725,-0.5108371443354899,0.784157252184122,-1.0029007440717719,1.1078380588724404,-0.88572723902323
0.21612987333874725,-0.4981521114192706,0.8412355228719435,1.011244213772687,-1.143178022125528,-0.9033397474141861
0.19498589146525688,-0.4981521114192706,0.8126963875280327,1.002410244659334,1.089462417394906,-0.9033397474141861
0.2372738552122376,-0.4981521114192706,0.784157252184122,-1.1000744043186537,1.015959851484768,-0.9121460016096642
0.25841783708572796,-0.5108371443354899,0.7746442070694851,-1.1089083734320064,-1.2350562295132004,1.3246425640417625
0.25841783708572796,-0.4854670785030514,0.7936702972987589,0.9847423064326282,-1.2350562295132004,1.3334488182372406
0.21612987333874725,-0.4981521114192706,0.8602616131012173,1.090749935792863,1.0343354929623025,-0.8681147306322738
0.321849782706199,-0.5108371443354899,0.8222094326426697,-1.1000744043186537,1.0435233137010698,-0.88572723902323
0.27956181895921833,-0.5108371443354899,0.8317224777573066,1.090749935792863,-1.2258684087744331,1.3246425640417625
0.27956181895921833,-0.4981521114192706,0.8126963875280327,1.0377461211127454,-1.1707414843418298,1.3246425640417625
0.25841783708572796,-0.4981521114192706,0.8507485679865804,-1.153078218998771,1.0251476722235353,-0.9121460016096642
0.25841783708572796,-0.523522177251709,0.8126963875280327,-1.1177423425453594,0.9148938233583288,-0.8945334932187081
0.3429937645796894,-0.5108371443354899,0.8031833424133958,0.9759083373192753,-1.2074927672968987,1.3334488182372406
0.25841783708572796,-0.4981521114192706,0.8602616131012173,0.993576275545981,-1.1248023806479936,1.3334488182372406
0.2372738552122376,-0.5108371443354899,0.8412355228719435,-1.1089083734320064,-1.2258684087744331,-0.9121460016096642
0.21612987333874725,-0.4981521114192706,0.8031833424133958,-1.082406466091948,-1.1339902013867609,-0.8945334932187081
0.19498589146525688,-0.5108371443354899,0.8031833424133958,0.9847423064326282,-1.216680588035666,-0.9033397474141861
0.27956181895921833,-0.523522177251709,0.8031833424133958,1.090749935792863,-1.2074927672968987,-0.9033397474141861
0.321849782706199,-0.5108371443354899,0.7651311619548482,-1.1000744043186537,-1.1891171258193642,1.3334488182372406
0.2372738552122376,-0.5108371443354899,0.8412355228719435,1.0377461211127454,1.0986502381336731,1.3334488182372406
0.15269792771827617,-0.4854670785030514,0.8412355228719435,0.9670743682059224,0.8322034367094239,-0.9033397474141861
0.27956181895921833,-0.5108371443354899,0.7556181168402113,1.0554140593394512,1.0710867759173714,1.3334488182372406
0.19498589146525688,-0.5108371443354899,0.8412355228719435,-1.0382366205251834,-1.1983049465581315,-0.8945334932187081
0.19498589146525688,-0.4854670785030514,0.8317224777573066,0.9582403990925695,1.0986502381336731,1.3246425640417625
0.27956181895921833,-0.4981521114192706,0.8412355228719435,0.9670743682059224,-1.2258684087744331,-0.9033397474141861
0.27956181895921833,-0.5108371443354899,0.8222094326426697,-1.0647385278652421,1.0986502381336731,-0.9033397474141861
0.25841783708572796,-0.4981521114192706,0.8507485679865804,1.011244213772687,0.9608329270521648,1.3158363098462844
0.27956181895921833,-0.4854670785030514,0.8126963875280327,1.0465800902260984,-1.1983049465581315,-0.8945334932187081
0.21612987333874725,-0.4854670785030514,0.8507485679865804,-1.1265763116587124,-1.1248023806479936,-0.8945334932187081
0.21612987333874725,-0.5108371443354899,0.8507485679865804,-1.1265763116587124,-1.1891171258193642,-0.9033397474141861
0.19498589146525688,-0.5108371443354899,0.8222094326426697,1.0554140593394512,1.089462417394906,1.3246425640417625
0.321849782706199,-0.4981521114192706,0.8602616131012173,0.993576275545981,1.015959851484768,-0.9033397474141861
0.30070580083270865,-0.5108371443354899,0.784157252184122,-1.1000744043186537,1.0986502381336731,-0.9033397474141861
0.19498589146525688,-0.5108371443354899,0.7556181168402113,-1.1089083734320064,-1.1064267391704592,-0.9033397474141861
0.17384190959176654,-0.4854670785030514,0.8507485679865804,0.9759083373192753,-1.097238918431692,1.3246425640417625
0.21612987333874725,-0.5108371443354899,0.8317224777573066,-1.161912188112124,1.015959851484768,-0.88572723902323
0.2372738552122376,-0.5108371443354899,0.8031833424133958,-1.1089083734320064,0.9700207477909321,-0.9033397474141861
0.25841783708572796,-0.4981521114192706,0.7746442070694851,-1.1442442498854182,-1.1891171258193642,1.3334488182372406
0.2372738552122376,-0.4981521114192706,0.7936702972987589,0.9759083373192753,-1.1523658428642953,1.3334488182372406
0.13155394584478583,-0.4727820455868322,-1.5465388009019185,-1.153078218998771,0.9883963892684665,-0.9033397474141861
0.27956181895921833,-0.4981521114192706,0.8126963875280327,-1.0912404352053007,1.015959851484768,-0.88572723902323
0.21612987333874725,-0.5108371443354899,0.784157252184122,0.9494064299792166,-1.0512998147378558,1.3334488182372406
0.15269792771827617,-0.4854670785030514,0.8222094326426697,-1.1089083734320064,-1.0880510976929247,-0.88572723902323
0.25841783708572796,-0.4981521114192706,0.8317224777573066,-1.0912404352053007,1.0251476722235353,-0.9033397474141861
0.19498589146525688,-0.4981521114192706,0.7936702972987589,-1.153078218998771,1.0435233137010698,1.3246425640417625
0.27956181895921833,-0.460097012670613,0.8412355228719435,1.011244213772687,1.0343354929623025,1.3334488182372406
0.321849782706199,-0.5108371443354899,0.8222094326426697,1.0377461211127454,-1.1615536636030626,-0.9121460016096642
0.27956181895921833,-0.5108371443354899,0.8126963875280327,-1.0382366205251834,-1.2074927672968987,-0.8769209848277519
0.15269792771827617,-0.4981521114192706,0.8031833424133958,1.002410244659334,-1.179929305080597,1.3334488182372406
0.19498589146525688,-0.4981521114192706,0.7746442070694851,0.9759083373192753,-1.2350562295132004,1.3158363098462844
0.2372738552122376,-0.4727820455868322,0.8126963875280327,-1.1089083734320064,1.089462417394906,-0.9121460016096642
0.2372738552122376,-0.4981521114192706,0.7936702972987589,-1.0912404352053007,1.1078380588724404,-0.9121460016096642
0.21612987333874725,-0.4854670785030514,0.8317224777573066,-1.161912188112124,-1.216680588035666,-0.88572723902323
0.21612987333874725,-0.5108371443354899,0.8317224777573066,1.0465800902260984,0.9883963892684665,-0.8769209848277519
0.30070580083270865,-0.5108371443354899,0.7746442070694851,-1.0559045587518892,1.0986502381336731,-0.9033397474141861
0.19498589146525688,-0.4981521114192706,0.8126963875280327,1.073081997566157,-1.1156145599092264,1.3070300556508063
0.19498589146525688,-0.4981521114192706,0.8317224777573066,0.9847423064326282,-1.1615536636030626,1.3158363098462844
0.17384190959176654,-0.4981521114192706,0.879287703330491,-1.1265763116587124,0.8689547196644927,-0.8769209848277519
0.36413774645317976,-0.5108371443354899,0.8126963875280327,-1.073572496978595,1.0251476722235353,-0.8681147306322738
0.2372738552122376,-0.5108371443354899,0.8031833424133958,1.090749935792863,-1.00536071104402,-0.9033397474141861
0.15269792771827617,-0.4981521114192706,0.8317224777573066,1.0289121519993927,-1.0880510976929247,1.3158363098462844
0.21612987333874725,-0.4981521114192706,0.8317224777573066,-1.1177423425453594,0.9792085685296993,-0.9121460016096642
0.21612987333874725,-0.4727820455868322,0.8412355228719435,-1.082406466091948,0.8965181818807944,-0.8945334932187081
0.25841783708572796,-0.4854670785030514,0.7936702972987589,0.8699007079590406,-1.2258684087744331,1.3334488182372406
0.2372738552122376,-0.4854670785030514,0.8126963875280327,1.0377461211127454,-1.0788632769541575,-0.8769209848277519
0.15269792771827617,-0.4727820455868322,0.879287703330491,-1.0470705896385364,-1.1983049465581315,-0.8769209848277519
0.25841783708572796,-0.5108371443354899,0.7936702972987589,1.011244213772687,0.9332694648358633,1.2982238014553282
0.30070580083270865,-0.4727820455868322,0.7746442070694851,0.9317384917525109,1.015959851484768,1.3158363098462844
0.27956181895921833,-0.4981521114192706,0.8222094326426697,-1.1354102807720652,-1.1156145599092264,-0.9033397474141861
0.21612987333874725,-0.5108371443354899,-1.5370257557872817,-1.082406466091948,-1.1248023806479936,-0.88572723902323
0.17384190959176654,-0.5108371443354899,0.8317224777573066,0.9847423064326282,1.015959851484768,1.3334488182372406
0.19498589146525688,-0.4854670785030514,0.784157252184122,1.0465800902260984,0.9608329270521648,-0.9121460016096642
0.27956181895921833,-0.4981521114192706,0.784157252184122,-1.1177423425453594,1.0251476722235353,1.3334488182372406
0.25841783708572796,-0.4981521114192706,0.8126963875280327,-1.0382366205251834,-1.1339902013867609,-0.9121460016096642
0.27956181895921833,-0.4981521114192706,0.8412355228719435,1.0377461211127454,-1.179929305080597,-0.9033397474141861
0.21612987333874725,-0.4727820455868322,0.8412355228719435,0.9847423064326282,0.9792085685296993,-0.88572723902323
0.25841783708572796,-0.4981521114192706,0.8126963875280327,-1.161912188112124,0.9332694648358633,-0.88572723902323
0.2372738552122376,-0.5108371443354899,0.7746442070694851,-1.153078218998771,-1.216680588035666,1.3158363098462844
0.11040996397129547,-0.4981521114192706,0.8222094326426697,1.011244213772687,-1.1248023806479936,1.2894175472598504
0.25841783708572796,-0.4854670785030514,0.8602616131012173,1.073081997566157,1.0710867759173714,-0.9033397474141861
0.21612987333874725,-0.5108371443354899,0.8412355228719435,-1.1265763116587124,1.089462417394906,-0.8945334932187081
0.17384190959176654,-0.5108371443354899,0.8031833424133958,-1.161912188112124,-1.1983049465581315,-0.8945334932187081
0.2372738552122376,-0.4727820455868322,0.8031833424133958,1.002410244659334,-1.097238918431692,1.3334488182372406
0.21612987333874725,-0.4981521114192706,0.8126963875280327,-1.1265763116587124,-1.179929305080597,1.3334488182372406
0.13155394584478583,-0.5108371443354899,0.784157252184122,-1.1000744043186537,1.0710867759173714,1.3246425640417625
0.19498589146525688,-0.4981521114192706,0.7556181168402113,1.0465800902260984,-1.179929305080597,1.3158363098462844
0.21612987333874725,-0.4854670785030514,0.8031833424133958,0.9494064299792166,-1.1248023806479936,-0.9121460016096642
0.19498589146525688,-0.4854670785030514,0.8031833424133958,-1.1000744043186537,1.0710867759173714,-0.8681147306322738
0.2372738552122376,-0.5108371443354899,0.7936702972987589,-1.1442442498854182,1.052711134439837,-0.9121460016096642
0.19498589146525688,-0.5108371443354899,0.7651311619548482,1.0465800902260984,1.1078380588724404,1.3158363098462844
0.30070580083270865,-0.5108371443354899,0.8031833424133958,-1.1442442498854182,-1.1615536636030626,-0.9033397474141861
0.21612987333874725,-0.4981521114192706,0.8602616131012173,-1.153078218998771,-1.179929305080597,-0.9033397474141861
0.21612987333874725,-0.4981521114192706,0.8507485679865804,-1.1000744043186537,1.006772030746001,-0.9033397474141861
0.19498589146525688,-0.523522177251709,0.8412355228719435,0.9052365844124521,0.9975842100072337,1.3070300556508063
0.2372738552122376,-0.5108371443354899,0.7270789814963007,-1.1442442498854182,1.0435233137010698,-0.9121460016096642
0.15269792771827617,-0.5108371443354899,0.8031833424133958,-1.0912404352053007,-0.9777972488277182,1.3334488182372406
0.21612987333874725,-0.523522177251709,-1.527512710672645,1.0289121519993927,-1.1891171258193642,1.3158363098462844
0.19498589146525688,-0.4854670785030514,0.8602616131012173,0.993576275545981,0.8322034367094239,1.3334488182372406
0.321849782706199,-0.4727820455868322,0.7651311619548482,-1.153078218998771,0.9700207477909321,-0.8681147306322738
0.2372738552122376,-0.4981521114192706,0.7936702972987589,-1.082406466091948,-1.0421119939990888,-0.88572723902323
0.13155394584478583,-0.4981521114192706,-1.517999665558008,1.002410244659334,-1.1064267391704592,1.3334488182372406
0.25841783708572796,-0.4854670785030514,0.8697746582158542,1.002410244659334,0.9700207477909321,1.3246425640417625
0.27956181895921833,-0.4727820455868322,0.7746442070694851,-1.1089083734320064,1.015959851484768,-0.9033397474141861
0.21612987333874725,-0.4981521114192706,0.7936702972987589,-1.1089083734320064,-1.0696754562153903,1.3246425640417625
0.15269792771827617,-0.4854670785030514,0.8412355228719435,1.0465800902260984,-1.143178022125528,-0.9121460016096642
0.2372738552122376,-0.4854670785030514,0.8412355228719435,1.0465800902260984,1.015959851484768,-0.8769209848277519
0.21612987333874725,-0.4981521114192706,0.7556181168402113,-1.0912404352053007,0.9424572855746305,-0.8593084764367959
0.2372738552122376,-0.5108371443354899,0.8222094326426697,0.993576275545981,-1.2258684087744331,1.3246425640417625
0.25841783708572796,-0.4854670785030514,0.7936702972987589,1.0554140593394512,-1.097238918431692,1.3158363098462844
0.21612987333874725,-0.4727820455868322,0.8317224777573066,-1.1354102807720652,-1.143178022125528,-0.9033397474141861
0.15269792771827617,-0.523522177251709,0.8317224777573066,-1.0382366205251834,1.0710867759173714,-0.9033397474141861
0.15269792771827617,-0.4981521114192706,0.8602616131012173,0.8875686461857464,0.9792085685296993,-0.9121460016096642
0.27956181895921833,-0.4727820455868322,0.7746442070694851,1.0465800902260984,1.0618989551786042,-0.88572723902323
0.25841783708572796,-0.4854670785030514,0.7746442070694851,-1.0117347131851246,-1.0237363525215544,-0.8945334932187081
0.17384190959176654,-0.4981521114192706,0.879287703330491,-1.1089083734320064,-1.2074927672968987,1.3246425640417625
0.25841783708572796,-0.4854670785030514,0.8126963875280327,0.9317384917525109,1.0618989551786042,1.3158363098462844
0.2372738552122376,-0.4854670785030514,0.8031833424133958,1.073081997566157,0.9516451063133977,-0.9033397474141861
0.25841783708572796,-0.4981521114192706,0.8126963875280327,-1.073572496978595,1.1078380588724404,-0.88572723902323
0.2372738552122376,-0.4981521114192706,0.8222094326426697,1.0642480284528042,-1.0788632769541575,-0.9121460016096642
0.15269792771827617,-0.460097012670613,0.8317224777573066,0.9494064299792166,1.1078380588724404,-0.9121460016096642
0.21612987333874725,-0.4854670785030514,0.8031833424133958,-1.1177423425453594,0.9700207477909321,-0.88572723902323
0.21612987333874725,-0.523522177251709,0.7746442070694851,-1.0470705896385364,1.015959851484768,1.3334488182372406
0.17384190959176654,-0.5108371443354899,0.8507485679865804,-1.1354102807720652,1.015959851484768,1.2982238014553282
0.27956181895921833,-0.4727820455868322,0.8412355228719435,0.9494064299792166,-1.2350562295132004,-0.9121460016096642
0.21612987333874725,-0.4727820455868322,0.8507485679865804,-1.082406466091948,-1.2350562295132004,-0.8593084764367959
0.21612987333874725,-0.5108371443354899,-1.498973575328734,-0.9675648676183604,0.9424572855746305,-0.8769209848277519
0.27956181895921833,-0.5108371443354899,0.8031833424133958,1.0642480284528042,0.8322034367094239,1.3070300556508063
0.3429937645796894,-0.4981521114192706,0.8031833424133958,1.0642480284528042,-1.1064267391704592,1.3070300556508063
0.17384190959176654,-0.4727820455868322,0.8222094326426697,-1.0470705896385364,-0.968609428088951,-0.8769209848277519
0.17384190959176654,-0.460097012670613,-1.527512710672645,1.0465800902260984,-1.2258684087744331,-0.8769209848277519
0.21612987333874725,-0.4981521114192706,-1.5370257557872817,1.011244213772687,0.8505790781869582,-0.8769209848277519
0.27956181895921833,-0.5108371443354899,0.7556181168402113,1.0465800902260984,1.0802745966561387,-0.9121460016096642
0.19498589146525688,-0.5108371443354899,0.8317224777573066,-1.0382366205251834,-1.1156145599092264,1.2982238014553282
0.15269792771827617,-0.4854670785030514,0.7746442070694851,-1.1442442498854182,-1.060487635476623,1.3070300556508063
0.13155394584478583,-0.4854670785030514,0.784157252184122,1.0200781828860397,-1.2258684087744331,-0.88572723902323
0.19498589146525688,-0.4854670785030514,0.8602616131012173,1.073081997566157,0.9057060026195616,-0.8416959680458397
0.25841783708572796,-0.523522177251709,0.8317224777573066,-1.1000744043186537,0.8873303611420271,-0.8945334932187081
0.3429937645796894,-0.5362072101679283,0.8222094326426697,1.0642480284528042,-1.1523658428642953,1.3070300556508063
0.30070580083270865,-0.4854670785030514,0.8412355228719435,-1.161912188112124,-1.0696754562153903,1.3158363098462844
0.15269792771827617,-0.4981521114192706,0.8412355228719435,-1.153078218998771,-1.1891171258193642,-0.9033397474141861
0.19498589146525688,-0.4981521114192706,0.784157252184122,-1.1000744043186537,1.006772030746001,-0.88572723902323
0.19498589146525688,-0.4981521114192706,0.8126963875280327,1.0554140593394512,-1.2258684087744331,-0.88572723902323
0.27956181895921833,-0.4854670785030514,0.8031833424133958,1.0377461211127454,-1.143178022125528,-0.8945334932187081
0.2372738552122376,-0.523522177251709,0.8412355228719435,-1.1265763116587124,1.089462417394906,1.3246425640417625
0.21612987333874725,-0.4854670785030514,0.8126963875280327,1.090749935792863,0.9516451063133977,-0.9033397474141861
0.27956181895921833,-0.4854670785030514,0.8031833424133958,0.914070553525805,1.0986502381336731,1.3246425640417625
0.25841783708572796,-0.4981521114192706,0.8317224777573066,-1.073572496978595,-1.179929305080597,-0.9033397474141861
0.19498589146525688,-0.4854670785030514,0.8126963875280327,-1.0029007440717719,-1.1891171258193642,-0.8681147306322738
0.2372738552122376,-0.5108371443354899,0.8317224777573066,0.9847423064326282,1.0710867759173714,-0.9121460016096642
0.27956181895921833,-0.4854670785030514,0.8126963875280327,1.0554140593394512,1.006772030746001,-0.8769209848277519
0.25841783708572796,-0.4981521114192706,0.8031833424133958,-1.1000744043186537,1.0710867759173714,-0.9121460016096642
0.21612987333874725,-0.5108371443354899,0.8126963875280327,-1.0117347131851246,1.0986502381336731,1.3246425640417625
0.2372738552122376,-0.4981521114192706,0.7936702972987589,-1.1354102807720652,-1.1707414843418298,-0.9033397474141861
0.2372738552122376,-0.4854670785030514,0.8031833424133958,1.0554140593394512,-1.1523658428642953,-0.8945334932187081
0.17384190959176654,-0.5108371443354899,0.7936702972987589,-1.0647385278652421,1.0802745966561387,-0.8769209848277519
0.17384190959176654,-0.4981521114192706,0.7746442070694851,-1.153078218998771,-1.2350562295132004,-0.9033397474141861
0.25841783708572796,-0.4854670785030514,0.7746442070694851,0.9670743682059224,-1.1983049465581315,1.3158363098462844
0.17384190959176654,-0.4981521114192706,0.8317224777573066,-1.0647385278652421,-1.1615536636030626,-0.8945334932187081
0.2372738552122376,-0.4981521114192706,0.8031833424133958,-1.1089083734320064,-1.2350562295132004,-0.88572723902323
0.2372738552122376,-0.4981521114192706,0.784157252184122,1.011244213772687,-1.216680588035666,1.3334488182372406
0.2372738552122376,-0.4854670785030514,0.7746442070694851,1.0465800902260984,1.0986502381336731,-0.8945334932187081
0.2372738552122376,-0.4981521114192706,0.8031833424133958,-1.0205686822984776,1.1078380588724404,-0.9033397474141861
0.17384190959176654,-0.4854670785030514,0.7746442070694851,-1.0382366205251834,1.089462417394906,-0.9121460016096642
0.2372738552122376,-0.4981521114192706,0.7746442070694851,1.0200781828860397,-1.179929305080597,1.3246425640417625
0.25841783708572796,-0.5108371443354899,0.8222094326426697,1.08191596667951,-1.179929305080597,-0.9033397474141861
0.21612987333874725,-0.523522177251709,0.8317224777573066,-1.073572496978595,1.0986502381336731,-0.88572723902323
0.17384190959176654,-0.4981521114192706,0.8317224777573066,-1.161912188112124,0.9148938233583288,-0.9033397474141861
0.321849782706199,-0.5108371443354899,0.8031833424133958,0.8875686461857464,-1.1523658428642953,1.3070300556508063
0.19498589146525688,-0.4981521114192706,0.8126963875280327,1.090749935792863,-1.1891171258193642,-0.9121460016096642
0.21612987333874725,-0.523522177251709,0.8222094326426697,-1.1000744043186537,-1.1983049465581315,-0.88572723902323
0.2372738552122376,-0.4981521114192706,0.8031833424133958,1.0377461211127454,1.1078380588724404,1.3334488182372406
0.21612987333874725,-0.4981521114192706,0.784157252184122,0.9847423064326282,1.0710867759173714,1.3246425640417625
0.17384190959176654,-0.4981521114192706,0.7556181168402113,-1.161912188112124,-1.1983049465581315,1.3334488182372406
0.15269792771827617,-0.5108371443354899,-1.5370257557872817,-1.0559045587518892,-1.1248023806479936,1.3246425640417625
0.17384190959176654,-0.4854670785030514,0.8031833424133958,0.9847423064326282,1.1078380588724404,1.3334488182372406
0.25841783708572796,-0.4981521114192706,0.8126963875280327,1.0289121519993927,1.0618989551786042,-0.8945334932187081
0.21612987333874725,-0.4981521114192706,0.8602616131012173,-1.153078218998771,1.052711134439837,-0.9121460016096642
0.27956181895921833,-0.4981521114192706,0.8222094326426697,1.073081997566157,-1.1707414843418298,1.3158363098462844
0.19498589146525688,-0.4854670785030514,0.8317224777573066,0.9670743682059224,-1.1064267391704592,1.3158363098462844
0.21612987333874725,-0.4854670785030514,0.8412355228719435,1.0289121519993927,1.0343354929623025,1.3334488182372406
0.19498589146525688,-0.523522177251709,0.7936702972987589,-1.0559045587518892,0.9883963892684665,-0.8945334932187081
0.17384190959176654,-0.4981521114192706,0.7651311619548482,1.0377461211127454,-1.2074927672968987,1.3334488182372406
0.21612987333874725,-0.4854670785030514,0.8222094326426697,0.9847423064326282,-1.216680588035666,-0.9033397474141861
0.21612987333874725,-0.4981521114192706,0.8317224777573066,-1.153078218998771,1.0251476722235353,-0.9121460016096642
0.25841783708572796,-0.4981521114192706,0.8126963875280327,-1.1089083734320064,1.015959851484768,-0.8945334932187081
0.21612987333874725,-0.523522177251709,0.8126963875280327,0.9759083373192753,-1.143178022125528,1.3334488182372406
0.2372738552122376,-0.5108371443354899,0.8507485679865804,1.073081997566157,0.9975842100072337,1.3334488182372406
0.321849782706199,-0.4981521114192706,0.7365920266109376,-1.073572496978595,1.0710867759173714,-0.9121460016096642
0.21612987333874725,-0.4981521114192706,0.8126963875280327,-1.1442442498854182,-0.9594216073501838,-0.9033397474141861
0.11040996397129547,-0.4981521114192706,0.8412355228719435,0.9847423064326282,-1.060487635476623,-0.9033397474141861
0.19498589146525688,-0.5108371443354899,0.8126963875280327,1.0377461211127454,0.8781425404032599,-0.88572723902323
0.3429937645796894,-0.5108371443354899,0.8031833424133958,-1.1000744043186537,0.8965181818807944,-0.9033397474141861
0.30070580083270865,-0.4981521114192706,0.784157252184122,1.0465800902260984,-1.1891171258193642,1.3070300556508063
0.27956181895921833,-0.4854670785030514,0.8412355228719435,0.9494064299792166,-1.0696754562153903,1.3246425640417625
0.15269792771827617,-0.4854670785030514,0.8222094326426697,-1.082406466091948,1.0435233137010698,-0.9033397474141861
0.17384190959176654,-0.4981521114192706,0.7556181168402113,-1.0912404352053007,1.0986502381336731,-0.88572723902323
0.17384190959176654,-0.4981521114192706,0.8031833424133958,1.0200781828860397,-1.1248023806479936,-0.9121460016096642
0.21612987333874725,-0.4981521114192706,0.8222094326426697,1.002410244659334,1.1078380588724404,1.3334488182372406
0.2372738552122376,-0.4854670785030514,0.8126963875280327,-1.0559045587518892,1.006772030746001,-0.9033397474141861
0.27956181895921833,-0.5108371443354899,0.8222094326426697,-1.1265763116587124,1.1078380588724404,1.3334488182372406
0.21612987333874725,-0.4854670785030514,0.7936702972987589,0.9847423064326282,-1.1707414843418298,1.3246425640417625
0.17384190959176654,-0.4981521114192706,0.8126963875280327,-1.0294026514118306,1.089462417394906,-0.8769209848277519
0.11040996397129547,-0.4854670785030514,0.784157252184122,-1.0470705896385364,1.0802745966561387,-0.8945334932187081
0.21612987333874725,-0.5108371443354899,0.7746442070694851,1.0377461211127454,-1.179929305080597,1.3158363098462844
0.321849782706199,-0.4854670785030514,0.8412355228719435,1.090749935792863,-1.2350562295132004,-0.9121460016096642
0.17384190959176654,-0.5108371443354899,0.8031833424133958,1.073081997566157,1.0435233137010698,1.3334488182372406
0.17384190959176654,-0.5108371443354899,0.784157252184122,-1.1089083734320064,1.006772030746001,-0.8945334932187081
0.25841783708572796,-0.5108371443354899,0.784157252184122,1.011244213772687,-1.1891171258193642,-0.9121460016096642
0.27956181895921833,-0.4854670785030514,0.8412355228719435,0.993576275545981,1.0986502381336731,-0.9121460016096642
0.2372738552122376,-0.4981521114192706,0.8412355228719435,-1.1177423425453594,0.9700207477909321,-0.9033397474141861
0.27956181895921833,-0.5108371443354899,0.7651311619548482,-1.1089083734320064,1.0986502381336731,-0.9121460016096642
0.21612987333874725,-0.4854670785030514,0.7746442070694851,1.0289121519993927,-1.1983049465581315,1.3334488182372406
0.21612987333874725,-0.4854670785030514,0.8507485679865804,1.090749935792863,-1.2074927672968987,-0.9033397474141861
0.19498589146525688,-0.5108371443354899,0.8222094326426697,-1.1089083734320064,1.0618989551786042,-0.9033397474141861
0.2372738552122376,-0.4727820455868322,0.8222094326426697,1.08191596667951,0.9792085685296993,-0.8945334932187081
0.36413774645317976,-0.5108371443354899,0.8126963875280327,0.9494064299792166,-1.1891171258193642,-0.9121460016096642
0.25841783708572796,-0.4981521114192706,0.8412355228719435,-1.0647385278652421,-1.1523658428642953,-0.88572723902323
0.21612987333874725,-0.4981521114192706,0.8602616131012173,-1.0382366205251834,1.1078380588724404,-0.8945334932187081
0.30070580083270865,-0.523522177251709,0.879287703330491,0.9670743682059224,1.089462417394906,1.3246425640417625
0.30070580083270865,-0.4981521114192706,0.8031833424133958,-1.153078218998771,-1.216680588035666,-0.8945334932187081
0.25841783708572796,-0.4981521114192706,0.8222094326426697,-1.0912404352053007,-1.1891171258193642,-0.9033397474141861
0.21612987333874725,-0.4981521114192706,0.8412355228719435,-1.1177423425453594,-1.2074927672968987,-0.9121460016096642
0.25841783708572796,-0.5108371443354899,0.8031833424133958,0.9847423064326282,0.9148938233583288,1.3158363098462844
0.25841783708572796,-0.4981521114192706,0.8222094326426697,-1.1089083734320064,0.9700207477909321,-0.9033397474141861
0.2372738552122376,-0.5108371443354899,0.8031833424133958,-1.0382366205251834,-1.0237363525215544,-0.8945334932187081
0.15269792771827617,-0.5108371443354899,0.8507485679865804,-1.1442442498854182,-1.0237363525215544,-0.8945334932187081
0.15269792771827617,-0.4854670785030514,0.8317224777573066,0.9670743682059224,1.006772030746001,-0.9033397474141861
0.25841783708572796,-0.5108371443354899,0.7746442070694851,-1.0912404352053007,0.8505790781869582,-0.88572723902323
0.30070580083270865,-0.5108371443354899,0.7365920266109376,-1.1177423425453594,-1.179929305080597,1.3070300556508063
0.19498589146525688,-0.4981521114192706,0.8031833424133958,1.0642480284528042,-1.0421119939990888,1.3158363098462844
0.2372738552122376,-0.4981521114192706,0.8507485679865804,1.002410244659334,1.1078380588724404,-0.88572723902323
0.21612987333874725,-0.5108371443354899,0.8507485679865804,-1.0559045587518892,0.9332694648358633,-0.8593084764367959
0.2372738552122376,-0.5108371443354899,0.7651311619548482,1.08191596667951,1.052711134439837,-0.9121460016096642
0.2372738552122376,-0.4727820455868322,0.7936702972987589,0.9405724608658638,-1.1248023806479936,1.3158363098462844
0.30070580083270865,-0.4854670785030514,0.8031833424133958,-1.1442442498854182,-1.1707414843418298,-0.9033397474141861
0.2372738552122376,-0.5108371443354899,0.8031833424133958,-1.0647385278652421,1.0343354929623025,-0.9033397474141861
0.2372738552122376,-0.5108371443354899,0.784157252184122,1.0200781828860397,1.0710867759173714,1.3246425640417625
0.321849782706199,-0.4854670785030514,0.8222094326426697,1.0200781828860397,-1.2350562295132004,-0.9033397474141861
0.2372738552122376,-0.4854670785030514,0.7651311619548482,-1.0470705896385364,-1.2074927672968987,-0.8681147306322738
0.19498589146525688,-0.523522177251709,0.784157252184122,-1.0912404352053007,-1.1983049465581315,-0.9121460016096642
0.17384190959176654,-0.4981521114192706,0.8602616131012173,1.0200781828860397,0.9883963892684665,1.3334488182372406
0.30070580083270865,-0.4981521114192706,0.7936702972987589,1.011244213772687,1.015959851484768,1.3158363098462844
0.25841783708572796,-0.5108371443354899,0.784157252184122,-1.1000744043186537,-1.179929305080597,1.3246425640417625
0.13155394584478583,-0.5108371443354899,0.8031833424133958,1.090749935792863,-1.097238918431692,-0.9033397474141861
0.21612987333874725,-0.4854670785030514,0.8507485679865804,0.9582403990925695,1.0618989551786042,-0.9121460016096642
0.21612987333874725,-0.4981521114192706,0.8222094326426697,-1.161912188112124,0.9792085685296993,-0.8945334932187081
0.27956181895921833,-0.5362072101679283,0.8412355228719435,-1.1442442498854182,0.9516451063133977,-0.9121460016096642
0.25841783708572796,-0.5108371443354899,0.8507485679865804,1.0554140593394512,1.089462417394906,-0.9121460016096642
0.21612987333874725,-0.4981521114192706,0.8317224777573066,-1.161912188112124,-1.1615536636030626,-0.9033397474141861
0.2372738552122376,-0.4854670785030514,0.8317224777573066,-0.9675648676183604,-1.2258684087744331,-0.8769209848277519
0.19498589146525688,-0.5108371443354899,0.7936702972987589,1.073081997566157,-1.1707414843418298,-0.9121460016096642
0.2372738552122376,-0.4854670785030514,0.8031833424133958,1.0200781828860397,-1.216680588035666,-0.9121460016096642
0.17384190959176654,-0.4854670785030514,-1.5465388009019185,-1.082406466091948,0.9424572855746305,-0.8945334932187081
0.21612987333874725,-0.4854670785030514,0.7746442070694851,-1.0647385278652421,1.0343354929623025,-0.88572723902323
0.2372738552122376,-0.4981521114192706,0.8507485679865804,1.0200781828860397,-1.216680588035666,-0.9121460016096642
0.25841783708572796,-0.4981521114192706,0.8602616131012173,1.073081997566157,-1.1339902013867609,-0.8945334932187081
0.21612987333874725,-0.5108371443354899,0.8031833424133958,-1.073572496978595,-1.2074927672968987,-0.8945334932187081
0.17384190959176654,-0.4854670785030514,0.8412355228719435,-1.153078218998771,1.0435233137010698,-0.8945334932187081
0.321849782706199,-0.4981521114192706,0.7936702972987589,0.9847423064326282,-1.2350562295132004,1.3246425640417625
0.21612987333874725,-0.4981521114192706,0.8412355228719435,1.0465800902260984,-1.2258684087744331,1.3246425640417625
0.17384190959176654,-0.5362072101679283,0.8412355228719435,-0.9852328058450661,1.0802745966561387,1.3334488182372406
0.19498589146525688,-0.4854670785030514,0.784157252184122,0.9759083373192753,1.089462417394906,1.3070300556508063
0.25841783708572796,-0.4854670785030514,0.8126963875280327,-1.161912188112124,-1.216680588035666,-0.88572723902323
0.25841783708572796,-0.4981521114192706,0.8602616131012173,-1.1089083734320064,-1.1891171258193642,-0.88572723902323
0.2372738552122376,-0.5108371443354899,0.784157252184122,-1.0912404352053007,-1.1523658428642953,-0.8593084764367959
0.08926598209780512,-0.4854670785030514,0.7936702972987589,1.0289121519993927,-1.216680588035666,-0.9033397474141861
0.13155394584478583,-0.4981521114192706,0.8412355228719435,-1.161912188112124,0.9792085685296993,1.3334488182372406
0.321849782706199,-0.5108371443354899,0.8031833424133958,-1.1000744043186537,-1.2074927672968987,1.2894175472598504
0.21612987333874725,-0.4981521114192706,-1.5465388009019185,-1.0912404352053007,-1.2258684087744331,1.3246425640417625
0.21612987333874725,-0.4727820455868322,0.7556181168402113,1.0554140593394512,-1.2350562295132004,-0.8769209848277519
0.17384190959176654,-0.4981521114192706,-1.498973575328734,-1.0294026514118306,0.9792085685296993,-0.8505022222413178
0.19498589146525688,-0.4981521114192706,0.8031833424133958,-1.073572496978595,1.052711134439837,-0.8945334932187081
0.19498589146525688,-0.5108371443354899,0.8507485679865804,0.9847423064326282,-1.1707414843418298,1.3158363098462844
0.19498589146525688,-0.4981521114192706,-1.517999665558008,-1.0647385278652421,1.0710867759173714,-0.9121460016096642
0.21612987333874725,-0.4981521114192706,0.8507485679865804,-1.0912404352053007,1.006772030746001,-0.8769209848277519
0.19498589146525688,-0.5108371443354899,0.7936702972987589,0.9582403990925695,1.0435233137010698,-0.8945334932187081
0.25841783708572796,-0.4854670785030514,0.7746442070694851,0.9670743682059224,-1.1707414843418298,-0.8945334932187081
0.30070580083270865,-0.4854670785030514,0.879287703330491,-1.0912404352053007,-1.1615536636030626,-0.8769209848277519
0.21612987333874725,-0.5108371443354899,0.8222094326426697,-1.1089083734320064,-1.1248023806479936,1.3334488182372406
0.15269792771827617,-0.5108371443354899,0.8697746582158542,1.0200781828860397,1.0618989551786042,1.3334488182372406
0.2372738552122376,-0.4727820455868322,0.8602616131012173,1.073081997566157,0.924081644097096,-0.8945334932187081
0.30070580083270865,-0.4981521114192706,0.7746442070694851,-1.0470705896385364,1.0986502381336731,-0.88572723902323
0.2372738552122376,-0.4854670785030514,0.7746442070694851,-1.1442442498854182,-1.0329241732603216,1.3334488182372406
0.25841783708572796,-0.4981521114192706,0.8602616131012173,0.993576275545981,-1.1248023806479936,1.2982238014553282
0.17384190959176654,-0.4981521114192706,0.8602616131012173,-1.1265763116587124,0.9516451063133977,-0.8945334932187081
0.30070580083270865,-0.5108371443354899,0.7746442070694851,-1.1265763116587124,1.006772030746001,-0.8945334932187081
0.21612987333874725,-0.4981521114192706,0.8602616131012173,1.002410244659334,-1.1983049465581315,1.3334488182372406
0.27956181895921833,-0.4854670785030514,-1.5465388009019185,0.9582403990925695,1.0710867759173714,1.3246425640417625
0.27956181895921833,-0.523522177251709,0.8031833424133958,-0.9852328058450661,0.9792085685296993,-0.9121460016096642
0.27956181895921833,-0.4981521114192706,0.7651311619548482,-0.9322289911649487,-1.0329241732603216,1.3334488182372406
0.19498589146525688,-0.4981521114192706,-1.517999665558008,0.993576275545981,1.0986502381336731,1.3334488182372406
0.2372738552122376,-0.5108371443354899,0.8507485679865804,1.0554140593394512,0.9057060026195616,-0.8945334932187081
0.21612987333874725,-0.5362072101679283,-1.527512710672645,1.0377461211127454,0.9608329270521648,1.3070300556508063
0.40642571020016044,-0.523522177251709,0.7936702972987589,-1.0205686822984776,-1.097238918431692,-0.8769209848277519
0.3429937645796894,-0.4854670785030514,0.8031833424133958,0.9052365844124521,-0.7205382681422361,1.3158363098462844
0.17384190959176654,-0.4981521114192706,0.8697746582158542,-1.0294026514118306,-1.1983049465581315,-0.88572723902323
0.2372738552122376,-0.5108371443354899,0.8126963875280327,-1.082406466091948,0.8230156159706566,-0.88572723902323
0.2372738552122376,-0.5108371443354899,0.7556181168402113,0.9847423064326282,1.0251476722235353,1.3070300556508063
0.27956181895921833,-0.4981521114192706,0.7746442070694851,1.0465800902260984,-1.097238918431692,1.3246425640417625
0.17384190959176654,-0.4727820455868322,0.8031833424133958,-1.0912404352053007,-1.060487635476623,-0.8769209848277519
0.15269792771827617,-0.4981521114192706,0.8317224777573066,-1.1442442498854182,0.9883963892684665,-0.8945334932187081
0.17384190959176654,-0.523522177251709,0.7746442070694851,1.0289121519993927,0.9332694648358633,-0.9121460016096642
0.25841783708572796,-0.4981521114192706,0.784157252184122,0.9847423064326282,1.0802745966561387,1.3334488182372406
0.21612987333874725,-0.4981521114192706,0.7936702972987589,-1.073572496978595,-1.1707414843418298,-0.9121460016096642
0.21612987333874725,-0.4981521114192706,0.7746442070694851,-1.161912188112124,-1.1707414843418298,-0.9121460016096642
0.19498589146525688,-0.4981521114192706,0.8412355228719435,0.914070553525805,1.006772030746001,1.3334488182372406
0.21612987333874725,-0.4727820455868322,0.7556181168402113,-1.153078218998771,0.9700207477909321,-0.8769209848277519
0.21612987333874725,-0.4981521114192706,0.7746442070694851,-1.0559045587518892,-1.216680588035666,-0.88572723902323
0.17384190959176654,-0.523522177251709,0.8317224777573066,-1.161912188112124,-1.0880510976929247,1.3158363098462844
0.2372738552122376,-0.4981521114192706,0.8317224777573066,1.0289121519993927,-1.216680588035666,1.3158363098462844
0.21612987333874725,-0.4727820455868322,0.8031833424133958,-1.1442442498854182,0.9700207477909321,-0.9033397474141861
0.21612987333874725,-0.5108371443354899,0.8126963875280327,-1.1442442498854182,1.0251476722235353,-0.9033397474141861
0.2372738552122376,-0.5108371443354899,0.8031833424133958,1.011244213772687,-1.179929305080597,-0.9033397474141861
0.19498589146525688,-0.4854670785030514,0.8222094326426697,1.073081997566157,-1.1156145599092264,-0.8945334932187081
0.2372738552122376,-0.5108371443354899,0.8507485679865804,-1.0470705896385364,1.0618989551786042,-0.88572723902323
0.19498589146525688,-0.4981521114192706,0.8507485679865804,-1.1354102807720652,0.9975842100072337,1.3246425640417625
0.30070580083270865,-0.5108371443354899,0.7936702972987589,1.0554140593394512,1.0802745966561387,1.3334488182372406
0.19498589146525688,-0.4854670785030514,0.8222094326426697,1.0554140593394512,1.1078380588724404,-0.8945334932187081
0.21612987333874725,-0.4981521114192706,0.8031833424133958,-1.0205686822984776,-1.179929305080597,-0.8681147306322738
0.17384190959176654,-0.5108371443354899,0.8412355228719435,1.0465800902260984,-1.1707414843418298,-0.9121460016096642
0.17384190959176654,-0.4981521114192706,0.8602616131012173,1.073081997566157,1.052711134439837,1.3246425640417625
0.21612987333874725,-0.4854670785030514,0.8317224777573066,-1.1177423425453594,0.9700207477909321,1.3334488182372406
0.30070580083270865,-0.4981521114192706,0.7936702972987589,-1.1177423425453594,1.089462417394906,-0.9121460016096642
0.27956181895921833,-0.523522177251709,0.8222094326426697,0.9405724608658638,-1.1156145599092264,1.2894175472598504
0.15269792771827617,-0.4981521114192706,0.8507485679865804,-1.1442442498854182,-1.143178022125528,-0.8945334932187081
0.19498589146525688,-0.4981521114192706,0.8602616131012173,-1.082406466091948,1.052711134439837,-0.8681147306322738
0.15269792771827617,-0.4981521114192706,0.7556181168402113,1.073081997566157,0.9883963892684665,1.3334488182372406
0.30070580083270865,-0.5108371443354899,0.784157252184122,0.993576275545981,1.0343354929623025,1.3070300556508063
0.25841783708572796,-0.4854670785030514,0.7936702972987589,1.090749935792863,-1.1523658428642953,-0.9121460016096642
0.2372738552122376,-0.5108371443354899,0.8126963875280327,-1.073572496978595,-1.143178022125528,-0.9033397474141861
0.19498589146525688,-0.4854670785030514,-1.5370257557872817,1.0465800902260984,0.9975842100072337,-0.9033397474141861
0.25841783708572796,-0.4854670785030514,0.784157252184122,0.9670743682059224,0.9883963892684665,-0.9033397474141861
0.21612987333874725,-0.4854670785030514,0.7936702972987589,-1.1354102807720652,1.0343354929623025,-0.9033397474141861
0.2372738552122376,-0.5108371443354899,0.784157252184122,-1.0912404352053007,-1.1707414843418298,1.3334488182372406
0.2372738552122376,-0.4981521114192706,0.8317224777573066,1.011244213772687,-1.1064267391704592,1.3070300556508063
0.19498589146525688,-0.4854670785030514,0.879287703330491,1.002410244659334,0.9516451063133977,-0.9033397474141861
0.25841783708572796,-0.4854670785030514,0.784157252184122,-1.0647385278652421,0.9516451063133977,-0.8681147306322738
0.25841783708572796,-0.4981521114192706,0.7936702972987589,-1.1265763116587124,-1.1615536636030626,-0.9033397474141861
0.17384190959176654,-0.4854670785030514,0.8412355228719435,1.002410244659334,-1.1339902013867609,1.3246425640417625
0.19498589146525688,-0.4854670785030514,0.8602616131012173,-1.161912188112124,1.0343354929623025,1.3334488182372406
0.19498589146525688,-0.5108371443354899,0.8126963875280327,-1.1177423425453594,1.006772030746001,-0.9121460016096642
0.2372738552122376,-0.4981521114192706,0.7365920266109376,1.0200781828860397,-1.2074927672968987,1.3334488182372406
0.27956181895921833,-0.4727820455868322,0.7556181168402113,1.0554140593394512,-1.1523658428642953,-0.88572723902323
0.2372738552122376,-0.5108371443354899,0.8412355228719435,-1.1000744043186537,-1.1891171258193642,-0.8945334932187081
0.21612987333874725,-0.523522177251709,-1.5370257557872817,-1.1089083734320064,0.9883963892684665,-0.9121460016096642
0.19498589146525688,-0.523522177251709,0.8222094326426697,0.993576275545981,0.924081644097096,1.3070300556508063
0.2372738552122376,-0.4854670785030514,0.784157252184122,1.002410244659334,1.089462417394906,1.3246425640417625
0.17384190959176654,-0.4854670785030514,0.8031833424133958,-1.1000744043186537,-1.00536071104402,-0.88572723902323
0.11040996397129547,-0.4981521114192706,0.8126963875280327,-1.1265763116587124,-1.1615536636030626,-0.8593084764367959
0.27956181895921833,-0.4727820455868322,0.7936702972987589,0.9847423064326282,1.0251476722235353,-0.8769209848277519
0.30070580083270865,-0.5108371443354899,0.7651311619548482,-1.1354102807720652,1.0251476722235353,1.3246425640417625
0.27956181895921833,-0.5108371443354899,0.7746442070694851,-1.073572496978595,-1.1156145599092264,1.2806112930643723
0.2372738552122376,-0.4854670785030514,0.8412355228719435,1.002410244659334,-1.1707414843418298,1.3246425640417625
0.21612987333874725,-0.4854670785030514,0.8412355228719435,1.0289121519993927,1.052711134439837,-0.8681147306322738
0.25841783708572796,-0.4981521114192706,0.7746442070694851,-1.1089083734320064,1.0710867759173714,-0.8593084764367959
0.25841783708572796,-0.4981521114192706,0.7080528912670269,-1.0912404352053007,-1.1248023806479936,-0.9033397474141861
0.21612987333874725,-0.4981521114192706,0.8697746582158542,0.9759083373192753,-1.1615536636030626,1.2894175472598504
0.17384190959176654,-0.4981521114192706,0.8507485679865804,-1.161912188112124,0.924081644097096,-0.9121460016096642
0.30070580083270865,-0.5108371443354899,0.7746442070694851,-1.073572496978595,1.0435233137010698,-0.8945334932187081
0.27956181895921833,-0.4981521114192706,0.8126963875280327,1.0642480284528042,-1.1707414843418298,-0.8945334932187081
0.17384190959176654,-0.4854670785030514,0.8602616131012173,0.993576275545981,-1.1891171258193642,-0.8945334932187081
0.21612987333874725,-0.5108371443354899,0.8317224777573066,-1.1089083734320064,1.0618989551786042,-0.9033397474141861
0.15269792771827617,-0.5108371443354899,0.7746442070694851,-1.0912404352053007,0.9792085685296993,-0.9121460016096642
0.19498589146525688,-0.4854670785030514,0.7556181168402113,1.0289121519993927,-1.2258684087744331,1.3334488182372406
0.21612987333874725,-0.4981521114192706,0.8222094326426697,1.0377461211127454,-1.2074927672968987,-0.9121460016096642
0.2372738552122376,-0.5108371443354899,0.8697746582158542,-1.082406466091948,1.0435233137010698,-0.8945334932187081
0.30070580083270865,-0.5108371443354899,0.8031833424133958,1.090749935792863,1.0802745966561387,-0.9033397474141861
0.25841783708572796,-0.5108371443354899,0.8031833424133958,1.0200781828860397,-1.0696754562153903,1.3158363098462844
0.13155394584478583,-0.4854670785030514,0.8697746582158542,-1.153078218998771,1.0618989551786042,-0.9121460016096642
0.17384190959176654,-0.4981521114192706,0.8697746582158542,-1.1177423425453594,0.924081644097096,-0.8945334932187081
0.27956181895921833,-0.4981521114192706,0.784157252184122,1.011244213772687,1.089462417394906,1.3246425640417625
0.25841783708572796,-0.4981521114192706,0.7936702972987589,1.011244213772687,-1.0237363525215544,-0.9121460016096642
0.21612987333874725,-0.4981521114192706,0.8697746582158542,-1.1000744043186537,-1.1615536636030626,-0.9121460016096642
0.19498589146525688,-0.4981521114192706,0.8317224777573066,-1.153078218998771,0.9608329270521648,-0.9033397474141861
0.15269792771827617,-0.4981521114192706,0.8031833424133958,0.9317384917525109,0.8597668989257254,1.3246425640417625
0.21612987333874725,-0.4854670785030514,0.7936702972987589,-1.1000744043186537,1.0343354929623025,-0.88572723902323
0.30070580083270865,-0.523522177251709,0.7651311619548482,-1.1089083734320064,-0.9594216073501838,-0.9033397474141861
0.13155394584478583,-0.5108371443354899,0.8697746582158542,1.090749935792863,-0.9777972488277182,-0.9121460016096642
0.11040996397129547,-0.4854670785030514,-1.5465388009019185,1.08191596667951,0.8781425404032599,-0.9033397474141861
0.2372738552122376,-0.4854670785030514,0.7080528912670269,1.0554140593394512,0.9057060026195616,-0.8945334932187081
0.30070580083270865,-0.5108371443354899,0.7651311619548482,-1.1177423425453594,-1.1615536636030626,-0.9033397474141861
0.2372738552122376,-0.4981521114192706,0.8412355228719435,1.073081997566157,-1.0237363525215544,1.3246425640417625
0.21612987333874725,-0.4854670785030514,0.8412355228719435,1.0465800902260984,-1.2074927672968987,-0.8945334932187081
0.25841783708572796,-0.4854670785030514,0.8126963875280327,-1.0912404352053007,0.9975842100072337,-0.8769209848277519
0.2372738552122376,-0.5108371443354899,0.7746442070694851,1.090749935792863,1.0802745966561387,1.3246425640417625
0.19498589146525688,-0.4727820455868322,0.8031833424133958,1.0200781828860397,-1.1064267391704592,1.3334488182372406
0.25841783708572796,-0.4981521114192706,0.8412355228719435,-1.0559045587518892,-1.216680588035666,-0.88572723902323
0.17384190959176654,-0.5108371443354899,0.8412355228719435,-1.1354102807720652,0.9608329270521648,-0.9121460016096642
0.27956181895921833,-0.5108371443354899,0.7746442070694851,1.08191596667951,1.0251476722235353,-0.9033397474141861
